Elapsed_Time, System_Time, Euler_Roll, Euler_Pitch, Euler_Yaw, Gyro_Roll, Gyro_Pitch, Gyro_Yaw, Accel_x, Accel_y, Accel_z
0.02, 16:44:43.109,0,0,0,0,0,0,0,0,0,
0.04, 16:44:43.294,0,0,0,0,0,0,0,0,0,
0.3733333, 16:44:47.278,0,0,0,0,0,0,0,0,0,
0.7066667, 16:44:48.114,0,0,0,0,0,0,0,0,0,
0.8191081, 16:44:48.210,0,0,0,0,0,0,0,0,0,
0.8553299, 16:44:48.243,0,0,0,0,0,0,0,0,0,
0.9230145, 16:44:48.312,0,0,0,0,0,0,0,0,0,
0.9706808, 16:44:48.357,0,0,0,0,0,0,0,0,0,
1.01023, 16:44:48.397,0,0,0,0,0,0,0,0,0,
1.049212, 16:44:48.436,0,0,0,0,0,0,0,0,0,
1.112479, 16:44:48.502,0,0,0,0,0,0,0,0,0,
1.158987, 16:44:48.550,0,0,0,0,0,0,0,0,0,
1.210817, 16:44:48.599,0,0,0,0,0,0,0,0,0,
1.290279, 16:44:48.690,0,0,0,0,0,0,0,0,0,
1.33354, 16:44:48.720,0,0,0,0,0,0,0,0,0,
1.381556, 16:44:48.769,0,0,0,0,0,0,0,0,0,
1.448753, 16:44:48.836,0,0,0,0,0,0,0,0,0,
1.487189, 16:44:48.874,0,0,0,0,0,0,0,0,0,
1.556123, 16:44:48.944,0,0,0,0,0,0,0,0,0,
1.586799, 16:44:48.974,0,0,0,0,0,0,0,0,0,
1.619713, 16:44:49.006,0,0,0,0,0,0,0,0,0,
1.653453, 16:44:49.039,0,0,0,0,0,0,0,0,0,
1.69692, 16:44:49.083,0,0,0,0,0,0,0,0,0,
1.733765, 16:44:49.120,0,0,0,0,0,0,0,0,0,
1.763083, 16:44:49.149,0,0,0,0,0,0,0,0,0,
1.796737, 16:44:49.182,0,0,0,0,0,0,0,0,0,
1.896876, 16:44:49.287,0,0,0,0,0,0,0,0,0,
1.93196, 16:44:49.319,0,0,0,0,0,0,0,0,0,
1.97487, 16:44:49.438,0,0,0,0,0,0,0,0,0,
2.082158, 16:44:49.473,0,0,0,0,0,0,0,0,0,
2.195418, 16:44:49.586,0,0,0,0,0,0,0,0,0,
2.381174, 16:44:49.778,0,0,0,0,0,0,0,0,0,
2.438089, 16:44:49.826,0,0,0,0,0,0,0,0,0,
2.506625, 16:44:49.896,0,0,0,0,0,0,0,0,0,
2.595741, 16:44:49.984,0,0,0,0,0,0,0,0,0,
2.641755, 16:44:50.030,0,0,0,0,0,0,0,0,0,
2.67719, 16:44:50.063,0,0,0,0,0,0,0,0,0,
2.709445, 16:44:50.097,0,0,0,0,0,0,0,0,0,
2.743004, 16:44:50.130,0,0,0,0,0,0,0,0,0,
2.777441, 16:44:50.163,0,0,0,0,0,0,0,0,0,
2.807129, 16:44:50.195,0,0,0,0,0,0,0,0,0,
2.843955, 16:44:50.231,0,0,0,0,0,0,0,0,0,
2.874541, 16:44:50.260,0,0,0,0,0,0,0,0,0,
2.905593, 16:44:50.292,0,0,0,0,0,0,0,0,0,
2.939298, 16:44:50.326,0,0,0,0,0,0,0,0,0,
2.974933, 16:44:50.362,0,0,0,0,0,0,0,0,0,
3.016056, 16:44:50.402,0,0,0,0,0,0,0,0,0,
3.049278, 16:44:50.436,0,0,0,0,0,0,0,0,0,
3.08109, 16:44:50.467,0,0,0,0,0,0,0,0,0,
3.113433, 16:44:50.499,0,0,0,0,0,0,0,0,0,
3.145294, 16:44:50.533,0,0,0,0,0,0,0,0,0,
3.177912, 16:44:50.565,0,0,0,0,0,0,0,0,0,
3.211168, 16:44:50.598,0,0,0,0,0,0,0,0,0,
3.247044, 16:44:50.636,0,0,0,0,0,0,0,0,0,
3.28509, 16:44:50.671,0,0,0,0,0,0,0,0,0,
3.328666, 16:44:50.715,0,0,0,0,0,0,0,0,0,
3.360703, 16:44:50.747,0,0,0,0,0,0,0,0,0,
3.39313, 16:44:50.779,0,0,0,0,0,0,0,0,0,
3.424798, 16:44:50.812,0,0,0,0,0,0,0,0,0,
3.45938, 16:44:50.845,0,0,0,0,0,0,0,0,0,
3.496343, 16:44:50.885,0,0,0,0,0,0,0,0,0,
3.534893, 16:44:50.924,0,0,0,0,0,0,0,0,0,
3.590114, 16:44:50.979,0,0,0,0,0,0,0,0,0,
3.628404, 16:44:51.016,0,0,0,0,0,0,0,0,0,
3.66572, 16:44:51.053,0,0,0,0,0,0,0,0,0,
3.700542, 16:44:51.086,0,0,0,0,0,0,0,0,0,
3.760406, 16:44:51.147,0,0,0,0,0,0,0,0,0,
3.792379, 16:44:51.178,0,0,0,0,0,0,0,0,0,
3.821058, 16:44:51.208,0,0,0,0,0,0,0,0,0,
3.852373, 16:44:51.237,0,0,0,0,0,0,0,0,0,
3.893045, 16:44:51.280,0,0,0,0,0,0,0,0,0,
3.92664, 16:44:51.314,0,0,0,0,0,0,0,0,0,
3.958864, 16:44:51.344,0,0,0,0,0,0,0,0,0,
3.989767, 16:44:51.378,0,0,0,0,0,0,0,0,0,
4.021817, 16:44:51.407,0,0,0,0,0,0,0,0,0,
4.053605, 16:44:51.439,0,0,0,0,0,0,0,0,0,
4.084538, 16:44:51.471,0,0,0,0,0,0,0,0,0,
4.116685, 16:44:51.502,0,0,0,0,0,0,0,0,0,
4.148732, 16:44:51.535,0,0,0,0,0,0,0,0,0,
4.179082, 16:44:51.565,0,0,0,0,0,0,0,0,0,
4.212489, 16:44:51.599,0,0,0,0,0,0,0,0,0,
4.251355, 16:44:51.638,0,0,0,0,0,0,0,0,0,
4.295504, 16:44:51.682,0,0,0,0,0,0,0,0,0,
4.32552, 16:44:51.713,0,0,0,0,0,0,0,0,0,
4.360333, 16:44:51.747,0,0,0,0,0,0,0,0,0,
4.393304, 16:44:51.778,0,0,0,0,0,0,0,0,0,
4.426627, 16:44:51.814,0,0,0,0,0,0,0,0,0,
4.458484, 16:44:51.845,0,0,0,0,0,0,0,0,0,
4.490113, 16:44:51.876,0,0,0,0,0,0,0,0,0,
4.523033, 16:44:51.910,0,0,0,0,0,0,0,0,0,
4.556407, 16:44:51.942,0,0,0,0,0,0,0,0,0,
4.589437, 16:44:51.976,0,0,0,0,0,0,0,0,0,
4.620527, 16:44:52.006,0,0,0,0,0,0,0,0,0,
4.652593, 16:44:52.038,0,0,0,0,0,0,0,0,0,
4.685271, 16:44:52.072,0,0,0,0,0,0,0,0,0,
4.724203, 16:44:52.112,0,0,0,0,0,0,0,0,0,
4.775872, 16:44:52.167,0,0,0,0,0,0,0,0,0,
4.826844, 16:44:52.216,0,0,0,0,0,0,0,0,0,
4.869925, 16:44:52.259,0,0,0,0,0,0,0,0,0,
4.905704, 16:44:52.292,0,0,0,0,0,0,0,0,0,
4.938026, 16:44:52.323,0,0,0,0,0,0,0,0,0,
4.970619, 16:44:52.358,0,0,0,0,0,0,0,0,0,
5.004601, 16:44:52.391,0,0,0,0,0,0,0,0,0,
5.048072, 16:44:52.436,0,0,0,0,0,0,0,0,0,
5.081415, 16:44:52.469,0,0,0,0,0,0,0,0,0,
5.114443, 16:44:52.501,0,0,0,0,0,0,0,0,0,
5.147433, 16:44:52.534,0,0,0,0,0,0,0,0,0,
5.195653, 16:44:52.583,0,0,0,0,0,0,0,0,0,
5.233803, 16:44:52.620,0,0,0,0,0,0,0,0,0,
5.27106, 16:44:52.659,0,0,0,0,0,0,0,0,0,
5.304739, 16:44:52.700,0,0,0,0,0,0,0,0,0,
5.347058, 16:44:52.735,0,0,0,0,0,0,0,0,0,
5.38175, 16:44:52.787,0,0,0,0,0,0,0,0,0,
5.432962, 16:44:52.819,0,0,0,0,0,0,0,0,0,
5.465378, 16:44:52.851,0,0,0,0,0,0,0,0,0,
5.500428, 16:44:52.887,0,0,0,0,0,0,0,0,0,
5.535284, 16:44:52.921,0,0,0,0,0,0,0,0,0,
5.566491, 16:44:52.954,0,0,0,0,0,0,0,0,0,
5.602163, 16:44:52.989,0,0,0,0,0,0,0,0,0,
5.64105, 16:44:53.028,0,0,0,0,0,0,0,0,0,
5.676692, 16:44:53.062,0,0,0,0,0,0,0,0,0,
5.713884, 16:44:53.101,0,0,0,0,0,0,0,0,0,
5.746683, 16:44:53.133,0,0,0,0,0,0,0,0,0,
5.780207, 16:44:53.168,0,0,0,0,0,0,0,0,0,
5.81267, 16:44:53.198,0,0,0,0,0,0,0,0,0,
5.845081, 16:44:53.231,0,0,0,0,0,0,0,0,0,
5.876691, 16:44:53.262,0,0,0,0,0,0,0,0,0,
5.91011, 16:44:53.298,0,0,0,0,0,0,0,0,0,
5.949646, 16:44:53.338,0,0,0,0,0,0,0,0,0,
5.993655, 16:44:53.383,0,0,0,0,0,0,0,0,0,
6.045046, 16:44:53.434,0,0,0,0,0,0,0,0,0,
6.082277, 16:44:53.471,0,0,0,0,0,0,0,0,0,
6.122824, 16:44:53.511,0,0,0,0,0,0,0,0,0,
6.15734, 16:44:53.544,0,0,0,0,0,0,0,0,0,
6.18864, 16:44:53.574,0,0,0,0,0,0,0,0,0,
6.22858, 16:44:53.616,0,0,0,0,0,0,0,0,0,
6.264714, 16:44:53.652,0,0,0,0,0,0,0,0,0,
6.299503, 16:44:53.685,0,0,0,0,0,0,0,0,0,
6.332849, 16:44:53.719,0,0,0,0,0,0,0,0,0,
6.365579, 16:44:53.752,0,0,0,0,0,0,0,0,0,
6.396473, 16:44:53.783,0,0,0,0,0,0,0,0,0,
6.428568, 16:44:53.815,0,0,0,0,0,0,0,0,0,
6.460543, 16:44:53.848,0,0,0,0,0,0,0,0,0,
6.492516, 16:44:53.878,0,0,0,0,0,0,0,0,0,
6.522417, 16:44:53.909,0,0,0,0,0,0,0,0,0,
6.557646, 16:44:53.943,0,0,0,0,0,0,0,0,0,
6.587977, 16:44:53.975,0,0,0,0,0,0,0,0,0,
6.621431, 16:44:54.007,0,0,0,0,0,0,0,0,0,
6.66886, 16:44:54.056,0,0,0,0,0,0,0,0,0,
6.69833, 16:44:54.085,0,0,0,0,0,0,0,0,0,
6.727959, 16:44:54.114,0,0,0,0,0,0,0,0,0,
6.768688, 16:44:54.155,0,0,0,0,0,0,0,0,0,
6.801008, 16:44:54.188,0,0,0,0,0,0,0,0,0,
6.8343, 16:44:54.219,0,0,0,0,0,0,0,0,0,
6.86547, 16:44:54.253,0,0,0,0,0,0,0,0,0,
6.898836, 16:44:54.284,0,0,0,0,0,0,0,0,0,
6.929671, 16:44:54.317,0,0,0,0,0,0,0,0,0,
6.965807, 16:44:54.354,0,0,0,0,0,0,0,0,0,
6.99934, 16:44:54.385,0,0,0,0,0,0,0,0,0,
7.03094, 16:44:54.417,0,0,0,0,0,0,0,0,0,
7.061396, 16:44:54.449,0,0,0,0,0,0,0,0,0,
7.094368, 16:44:54.480,0,0,0,0,0,0,0,0,0,
7.128508, 16:44:54.515,0,0,0,0,0,0,0,0,0,
7.165257, 16:44:54.553,0,0,0,0,0,0,0,0,0,
7.218535, 16:44:54.607,0,0,0,0,0,0,0,0,0,
7.260457, 16:44:54.649,0,0,0,0,0,0,0,0,0,
7.300482, 16:44:54.688,0,0,0,0,0,0,0,0,0,
7.334753, 16:44:54.721,0,0,0,0,0,0,0,0,0,
7.366065, 16:44:54.752,0,0,0,0,0,0,0,0,0,
7.403184, 16:44:54.790,0,0,0,0,0,0,0,0,0,
7.435645, 16:44:54.822,0,0,0,0,0,0,0,0,0,
7.467359, 16:44:54.854,0,0,0,0,0,0,0,0,0,
7.500899, 16:44:54.886,0,0,0,0,0,0,0,0,0,
7.532432, 16:44:54.918,0,0,0,0,0,0,0,0,0,
7.564344, 16:44:54.951,0,0,0,0,0,0,0,0,0,
7.597979, 16:44:54.983,0,0,0,0,0,0,0,0,0,
7.630938, 16:44:55.017,0,0,0,0,0,0,0,0,0,
7.663243, 16:44:55.050,0,0,0,0,0,0,0,0,0,
7.694925, 16:44:55.081,0,0,0,0,0,0,0,0,0,
7.727306, 16:44:55.114,0,0,0,0,0,0,0,0,0,
7.758965, 16:44:55.146,0,0,0,0,0,0,0,0,0,
7.790662, 16:44:55.178,0,0,0,0,0,0,0,0,0,
7.821968, 16:44:55.209,0,0,0,0,0,0,0,0,0,
7.856986, 16:44:55.243,0,0,0,0,0,0,0,0,0,
7.887265, 16:44:55.275,0,0,0,0,0,0,0,0,0,
7.921152, 16:44:55.307,0,0,0,0,0,0,0,0,0,
7.956214, 16:44:55.342,0,0,0,0,0,0,0,0,0,
7.988668, 16:44:55.375,0,0,0,0,0,0,0,0,0,
8.020235, 16:44:55.407,0,0,0,0,0,0,0,0,0,
8.054688, 16:44:55.441,0,0,0,0,0,0,0,0,0,
8.088278, 16:44:55.475,0,0,0,0,0,0,0,0,0,
8.123485, 16:44:55.510,0,0,0,0,0,0,0,0,0,
8.156232, 16:44:55.541,0,0,0,0,0,0,0,0,0,
8.187828, 16:44:55.575,0,0,0,0,0,0,0,0,0,
8.221622, 16:44:55.608,0,0,0,0,0,0,0,0,0,
8.254777, 16:44:55.640,0,0,0,0,0,0,0,0,0,
8.287925, 16:44:55.675,0,0,0,0,0,0,0,0,0,
8.321069, 16:44:55.710,0,0,0,0,0,0,0,0,0,
8.377148, 16:44:55.766,0,0,0,0,0,0,0,0,0,
8.431232, 16:44:55.821,0,0,0,0,0,0,0,0,0,
8.478517, 16:44:55.866,0,0,0,0,0,0,0,0,0,
8.517591, 16:44:55.903,0,0,0,0,0,0,0,0,0,
8.550388, 16:44:55.937,0,0,0,0,0,0,0,0,0,
8.583125, 16:44:55.969,0,0,0,0,0,0,0,0,0,
8.615808, 16:44:56.002,0,0,0,0,0,0,0,0,0,
8.656189, 16:44:56.043,0,0,0,0,0,0,0,0,0,
8.687499, 16:44:56.074,0,0,0,0,0,0,0,0,0,
8.722458, 16:44:56.109,0,0,0,0,0,0,0,0,0,
8.755668, 16:44:56.141,0,0,0,0,0,0,0,0,0,
8.788493, 16:44:56.176,0,0,0,0,0,0,0,0,0,
8.826227, 16:44:56.214,0,0,0,0,0,0,0,0,0,
8.863239, 16:44:56.250,0,0,0,0,0,0,0,0,0,
8.897168, 16:44:56.282,0,0,0,0,0,0,0,0,0,
8.940214, 16:44:56.328,0,0,0,0,0,0,0,0,0,
8.975677, 16:44:56.362,0,0,0,0,0,0,0,0,0,
9.013598, 16:44:56.402,0,0,0,0,0,0,0,0,0,
9.050899, 16:44:56.438,0,0,0,0,0,0,0,0,0,
9.084251, 16:44:56.471,0,0,0,0,0,0,0,0,0,
9.117843, 16:44:56.504,0,0,0,0,0,0,0,0,0,
9.165622, 16:44:56.554,0,0,0,0,0,0,0,0,0,
9.204099, 16:44:56.592,0,0,0,0,0,0,0,0,0,
9.24737, 16:44:56.634,0,0,0,0,0,0,0,0,0,
9.282426, 16:44:56.668,0,0,0,0,0,0,0,0,0,
9.317194, 16:44:56.704,0,0,0,0,0,0,0,0,0,
9.350704, 16:44:56.737,0,0,0,0,0,0,0,0,0,
9.387405, 16:44:56.774,0,0,0,0,0,0,0,0,0,
9.422392, 16:44:56.810,0,0,0,0,0,0,0,0,0,
9.458993, 16:44:56.846,0,0,0,0,0,0,0,0,0,
9.493913, 16:44:56.881,0,0,0,0,0,0,0,0,0,
9.55284, 16:44:56.942,0,0,0,0,0,0,0,0,0,
9.614697, 16:44:57.006,0,0,0,0,0,0,0,0,0,
9.658311, 16:44:57.046,0,0,0,0,0,0,0,0,0,
9.695529, 16:44:57.084,0,0,0,0,0,0,0,0,0,
9.734201, 16:44:57.120,0,0,0,0,0,0,0,0,0,
9.767392, 16:44:57.154,0,0,0,0,0,0,0,0,0,
9.803484, 16:44:57.189,0,0,0,0,0,0,0,0,0,
9.841797, 16:44:57.228,0,0,0,0,0,0,0,0,0,
9.88192, 16:44:57.268,0,0,0,0,0,0,0,0,0,
9.913699, 16:44:57.299,0,0,0,0,0,0,0,0,0,
9.947519, 16:44:57.335,0,0,0,0,0,0,0,0,0,
9.982503, 16:44:57.369,0,0,0,0,0,0,0,0,0,
10.01726, 16:44:57.404,0,0,0,0,0,0,0,0,0,
10.04867, 16:44:57.436,0,0,0,0,0,0,0,0,0,
10.08158, 16:44:57.469,0,0,0,0,0,0,0,0,0,
10.11621, 16:44:57.502,0,0,0,0,0,0,0,0,0,
10.14827, 16:44:57.535,0,0,0,0,0,0,0,0,0,
10.1808, 16:44:57.567,0,0,0,0,0,0,0,0,0,
10.21241, 16:44:57.597,0,0,0,0,0,0,0,0,0,
10.24741, 16:44:57.634,0,0,0,0,0,0,0,0,0,
10.28164, 16:44:57.668,0,0,0,0,0,0,0,0,0,
10.31673, 16:44:57.703,0,0,0,0,0,0,0,0,0,
10.35047, 16:44:57.737,0,0,0,0,0,0,0,0,0,
10.38285, 16:44:57.769,0,0,0,0,0,0,0,0,0,
10.41711, 16:44:57.803,0,0,0,0,0,0,0,0,0,
10.45267, 16:44:57.840,0,0,0,0,0,0,0,0,0,
10.48571, 16:44:57.872,0,0,0,0,0,0,0,0,0,
10.51984, 16:44:57.905,0,0,0,0,0,0,0,0,0,
10.55159, 16:44:57.938,0,0,0,0,0,0,0,0,0,
10.58484, 16:44:57.972,0,0,0,0,0,0,0,0,0,
10.61747, 16:44:58.004,0,0,0,0,0,0,0,0,0,
10.65331, 16:44:58.040,0,0,0,0,0,0,0,0,0,
10.68555, 16:44:58.072,0,0,0,0,0,0,0,0,0,
10.74771, 16:44:58.137,0,0,0,0,0,0,0,0,0,
10.79371, 16:44:58.184,0,0,0,0,0,0,0,0,0,
10.84238, 16:44:58.231,0,0,0,0,0,0,0,0,0,
10.88565, 16:44:58.273,0,0,0,0,0,0,0,0,0,
10.92454, 16:44:58.311,0,0,0,0,0,0,0,0,0,
10.96528, 16:44:58.352,0,0,0,0,0,0,0,0,0,
10.99858, 16:44:58.384,0,0,0,0,0,0,0,0,0,
11.0302, 16:44:58.419,0,0,0,0,0,0,0,0,0,
11.0654, 16:44:58.452,0,0,0,0,0,0,0,0,0,
11.1066, 16:44:58.494,0,0,0,0,0,0,0,0,0,
11.1447, 16:44:58.532,0,0,0,0,0,0,0,0,0,
11.17882, 16:44:58.565,0,0,0,0,0,0,0,0,0,
11.21175, 16:44:58.598,0,0,0,0,0,0,0,0,0,
11.24632, 16:44:58.633,0,0,0,0,0,0,0,0,0,
11.27973, 16:44:58.666,0,0,0,0,0,0,0,0,0,
11.31616, 16:44:58.703,0,0,0,0,0,0,0,0,0,
11.35609, 16:44:58.743,0,0,0,0,0,0,0,0,0,
11.3889, 16:44:58.776,0,0,0,0,0,0,0,0,0,
11.43721, 16:44:58.823,0,0,0,0,0,0,0,0,0,
11.4694, 16:44:58.856,0,0,0,0,0,0,0,0,0,
11.50623, 16:44:58.892,0,0,0,0,0,0,0,0,0,
11.54772, 16:44:58.934,0,0,0,0,0,0,0,0,0,
11.58406, 16:44:58.970,0,0,0,0,0,0,0,0,0,
11.61728, 16:44:59.004,0,0,0,0,0,0,0,0,0,
11.64885, 16:44:59.036,0,0,0,0,0,0,0,0,0,
11.68173, 16:44:59.068,0,0,0,0,0,0,0,0,0,
11.71536, 16:44:59.101,0,0,0,0,0,0,0,0,0,
11.74927, 16:44:59.137,0,0,0,0,0,0,0,0,0,
11.7826, 16:44:59.170,0,0,0,0,0,0,0,0,0,
11.81701, 16:44:59.204,0,0,0,0,0,0,0,0,0,
11.85167, 16:44:59.238,0,0,0,0,0,0,0,0,0,
11.88681, 16:44:59.273,0,0,0,0,0,0,0,0,0,
11.92726, 16:44:59.314,0,0,0,0,0,0,0,0,0,
11.97118, 16:44:59.360,0,0,0,0,0,0,0,0,0,
12.02928, 16:44:59.419,0,0,0,0,0,0,0,0,0,
12.06799, 16:44:59.456,0,0,0,0,0,0,0,0,0,
12.10613, 16:44:59.494,0,0,0,0,0,0,0,0,0,
12.13982, 16:44:59.526,0,0,0,0,0,0,0,0,0,
12.18217, 16:44:59.569,0,0,0,0,0,0,0,0,0,
12.21933, 16:44:59.605,0,0,0,0,0,0,0,0,0,
12.25618, 16:44:59.643,0,0,0,0,0,0,0,0,0,
12.28794, 16:44:59.675,0,0,0,0,0,0,0,0,0,
12.3213, 16:44:59.708,0,0,0,0,0,0,0,0,0,
12.35778, 16:44:59.744,0,0,0,0,0,0,0,0,0,
12.39477, 16:44:59.781,0,0,0,0,0,0,0,0,0,
12.42703, 16:44:59.814,0,0,0,0,0,0,0,0,0,
12.46072, 16:44:59.848,0,0,0,0,0,0,0,0,0,
12.4949, 16:44:59.881,0,0,0,0,0,0,0,0,0,
12.52982, 16:44:59.916,0,0,0,0,0,0,0,0,0,
12.56636, 16:44:59.953,0,0,0,0,0,0,0,0,0,
12.60327, 16:44:59.990,0,0,0,0,0,0,0,0,0,
12.64146, 16:45:00.028,0,0,0,0,0,0,0,0,0,
12.67642, 16:45:00.062,0,0,0,0,0,0,0,0,0,
12.71007, 16:45:00.098,0,0,0,0,0,0,0,0,0,
12.74545, 16:45:00.133,0,0,0,0,0,0,0,0,0,
12.77867, 16:45:00.164,0,0,0,0,0,0,0,0,0,
12.82361, 16:45:00.211,0,0,0,0,0,0,0,0,0,
12.86155, 16:45:00.249,0,0,0,0,0,0,0,0,0,
12.89631, 16:45:00.283,0,0,0,0,0,0,0,0,0,
12.92807, 16:45:00.316,0,0,0,0,0,0,0,0,0,
12.96382, 16:45:00.350,0,0,0,0,0,0,0,0,0,
12.99747, 16:45:00.383,0,0,0,0,0,0,0,0,0,
13.03191, 16:45:00.419,0,0,0,0,0,0,0,0,0,
13.0645, 16:45:00.452,0,0,0,0,0,0,0,0,0,
13.09799, 16:45:00.485,0,0,0,0,0,0,0,0,0,
13.13654, 16:45:00.525,0,0,0,0,0,0,0,0,0,
13.17598, 16:45:00.568,0,0,0,0,0,0,0,0,0,
13.23736, 16:45:00.626,0,0,0,0,0,0,0,0,0,
13.2814, 16:45:00.669,0,0,0,0,0,0,0,0,0,
13.31744, 16:45:00.703,0,0,0,0,0,0,0,0,0,
13.34955, 16:45:00.737,0,0,0,0,0,0,0,0,0,
13.38466, 16:45:00.772,0,0,0,0,0,0,0,0,0,
13.41898, 16:45:00.805,0,0,0,0,0,0,0,0,0,
13.45757, 16:45:00.845,0,0,0,0,0,0,0,0,0,
13.49401, 16:45:00.880,0,0,0,0,0,0,0,0,0,
13.52744, 16:45:00.914,0,0,0,0,0,0,0,0,0,
13.55967, 16:45:00.944,0,0,0,0,0,0,0,0,0,
13.5901, 16:45:00.978,0,0,0,0,0,0,0,0,0,
13.62264, 16:45:01.009,0,0,0,0,0,0,0,0,0,
13.65647, 16:45:01.042,0,0,0,0,0,0,0,0,0,
13.68939, 16:45:01.077,0,0,0,0,0,0,0,0,0,
13.72467, 16:45:01.111,0,0,0,0,0,0,0,0,0,
13.75725, 16:45:01.144,0,0,0,0,0,0,0,0,0,
13.7898, 16:45:01.176,0,0,0,0,0,0,0,0,0,
13.82341, 16:45:01.210,0,0,0,0,0,0,0,0,0,
13.85615, 16:45:01.242,0,0,0,0,0,0,0,0,0,
13.88725, 16:45:01.274,0,0,0,0,0,0,0,0,0,
13.92205, 16:45:01.309,0,0,0,0,0,0,0,0,0,
13.95931, 16:45:01.346,0,0,0,0,0,0,0,0,0,
13.99561, 16:45:01.383,0,0,0,0,0,0,0,0,0,
14.0289, 16:45:01.416,0,0,0,0,0,0,0,0,0,
14.0628, 16:45:01.450,0,0,0,0,0,0,0,0,0,
14.09702, 16:45:01.483,0,0,0,0,0,0,0,0,0,
14.13244, 16:45:01.518,0,0,0,0,0,0,0,0,0,
14.17063, 16:45:01.557,0,0,0,0,0,0,0,0,0,
14.20362, 16:45:01.592,0,0,0,0,0,0,0,0,0,
14.23853, 16:45:01.624,0,0,0,0,0,0,0,0,0,
14.27341, 16:45:01.660,0,0,0,0,0,0,0,0,0,
14.307, 16:45:01.694,0,0,0,0,0,0,0,0,0,
14.34365, 16:45:01.732,0,0,0,0,0,0,0,0,0,
14.39486, 16:45:01.786,0,0,0,0,0,0,0,0,0,
14.44806, 16:45:01.838,0,0,0,0,0,0,0,0,0,
14.4885, 16:45:01.875,0,0,0,0,0,0,0,0,0,
14.52452, 16:45:01.911,0,0,0,0,0,0,0,0,0,
14.55852, 16:45:01.943,0,0,0,0,0,0,0,0,0,
14.59411, 16:45:01.980,0,0,0,0,0,0,0,0,0,
14.62837, 16:45:02.015,0,0,0,0,0,0,0,0,0,
14.66699, 16:45:02.054,0,0,0,0,0,0,0,0,0,
14.70638, 16:45:02.093,0,0,0,0,0,0,0,0,0,
14.73832, 16:45:02.125,0,0,0,0,0,0,0,0,0,
14.77319, 16:45:02.160,0,0,0,0,0,0,0,0,0,
14.80956, 16:45:02.196,0,0,0,0,0,0,0,0,0,
14.84242, 16:45:02.229,0,0,0,0,0,0,0,0,0,
14.87756, 16:45:02.263,0,0,0,0,0,0,0,0,0,
14.9107, 16:45:02.298,0,0,0,0,0,0,0,0,0,
14.94726, 16:45:02.335,0,0,0,0,0,0,0,0,0,
14.98224, 16:45:02.368,0,0,0,0,0,0,0,0,0,
15.01811, 16:45:02.404,0,0,0,0,0,0,0,0,0,
15.0704, 16:45:02.457,0,0,0,0,0,0,0,0,0,
15.10526, 16:45:02.492,0,0,0,0,0,0,0,0,0,
15.1382, 16:45:02.525,0,0,0,0,0,0,0,0,0,
15.17161, 16:45:02.559,0,0,0,0,0,0,0,0,0,
15.2081, 16:45:02.595,0,0,0,0,0,0,0,0,0,
15.24657, 16:45:02.634,0,0,0,0,0,0,0,0,0,
15.28174, 16:45:02.668,0,0,0,0,0,0,0,0,0,
15.31489, 16:45:02.700,0,0,0,0,0,0,0,0,0,
15.34779, 16:45:02.734,0,0,0,0,0,0,0,0,0,
15.38083, 16:45:02.769,0,0,0,0,0,0,0,0,0,
15.41442, 16:45:02.800,0,0,0,0,0,0,0,0,0,
15.44874, 16:45:02.836,0,0,0,0,0,0,0,0,0,
15.48176, 16:45:02.868,0,0,0,0,0,0,0,0,0,
15.51628, 16:45:02.902,0,0,0,0,0,0,0,0,0,
15.55027, 16:45:02.938,0,0,0,0,0,0,0,0,0,
15.59574, 16:45:02.986,0,0,0,0,0,0,0,0,0,
15.64369, 16:45:03.031,0,0,0,0,0,0,0,0,0,
15.67986, 16:45:03.066,0,0,0,0,0,0,0,0,0,
15.71402, 16:45:03.101,0,0,0,0,0,0,0,0,0,
15.74991, 16:45:03.136,0,0,0,0,0,0,0,0,0,
15.78768, 16:45:03.174,0,0,0,0,0,0,0,0,0,
15.81989, 16:45:03.206,0,0,0,0,0,0,0,0,0,
15.85023, 16:45:03.238,0,0,0,0,0,0,0,0,0,
15.8875, 16:45:03.275,0,0,0,0,0,0,0,0,0,
15.92248, 16:45:03.308,0,0,0,0,0,0,0,0,0,
15.95678, 16:45:03.342,0,0,0,0,0,0,0,0,0,
15.9889, 16:45:03.374,0,0,0,0,0,0,0,0,0,
16.02372, 16:45:03.410,0,0,0,0,0,0,0,0,0,
16.35705, 16:45:04.144,0,0,0,0,0,0,0,0,0,
16.44113, 16:45:04.215,0,0,0,0,0,0,0,0,0,
16.51936, 16:45:04.289,0,0,0,0,0,0,0,0,0,
16.58706, 16:45:04.357,0,0,0,0,0,0,0,0,0,
16.65321, 16:45:04.424,0,0,0,0,0,0,0,0,0,
16.69397, 16:45:04.463,0,0,0,0,0,0,0,0,0,
16.72747, 16:45:04.497,0,0,0,0,0,0,0,0,0,
16.76299, 16:45:04.532,0,0,0,0,0,0,0,0,0,
16.8007, 16:45:04.569,0,0,0,0,0,0,0,0,0,
16.83804, 16:45:04.606,0,0,0,0,0,0,0,0,0,
16.87353, 16:45:04.644,0,0,0,0,0,0,0,0,0,
16.90796, 16:45:04.677,0,0,0,0,0,0,0,0,0,
16.94308, 16:45:04.712,0,0,0,0,0,0,0,0,0,
16.97585, 16:45:04.745,0,0,0,0,0,0,0,0,0,
17.00945, 16:45:04.779,0,0,0,0,0,0,0,0,0,
17.04591, 16:45:04.816,0,0,0,0,0,0,0,0,0,
17.08514, 16:45:04.854,0,0,0,0,0,0,0,0,0,
17.15549, 16:45:04.926,0,0,0,0,0,0,0,0,0,
17.19274, 16:45:04.962,0,0,0,0,0,0,0,0,0,
17.22975, 16:45:04.998,0,0,0,0,0,0,0,0,0,
17.27067, 16:45:05.039,0,0,0,0,0,0,0,0,0,
17.30914, 16:45:05.079,0,0,0,0,0,0,0,0,0,
17.34803, 16:45:05.119,0,0,0,0,0,0,0,0,0,
17.38569, 16:45:05.156,0,0,0,0,0,0,0,0,0,
17.42365, 16:45:05.195,0,0,0,0,0,0,0,0,0,
17.46399, 16:45:05.234,0,0,0,0,0,0,0,0,0,
17.50394, 16:45:05.272,0,0,0,0,0,0,0,0,0,
17.54147, 16:45:05.311,0,0,0,0,0,0,0,0,0,
17.58065, 16:45:05.352,0,0,0,0,0,0,0,0,0,
17.6265, 16:45:05.398,0,0,0,0,0,0,0,0,0,
17.67844, 16:45:05.448,0,0,0,0,0,0,0,0,0,
17.71906, 16:45:05.489,0,0,0,0,0,0,0,0,0,
17.75529, 16:45:05.524,0,0,0,0,0,0,0,0,0,
17.7884, 16:45:05.558,0,0,0,0,0,0,0,0,0,
17.82377, 16:45:05.593,0,0,0,0,0,0,0,0,0,
17.86273, 16:45:05.634,0,0,0,0,0,0,0,0,0,
17.9144, 16:45:05.688,0,0,0,0,0,0,0,0,0,
17.97351, 16:45:05.748,0,0,0,0,0,0,0,0,0,
18.02734, 16:45:05.804,0,0,0,0,0,0,0,0,0,
18.08554, 16:45:05.856,0,0,0,0,0,0,0,0,0,
18.12098, 16:45:05.890,0,0,0,0,0,0,0,0,0,
18.1688, 16:45:05.938,0,0,0,0,0,0,0,0,0,
18.20986, 16:45:05.979,0,0,0,0,0,0,0,0,0,
18.25177, 16:45:06.020,0,0,0,0,0,0,0,0,0,
18.28655, 16:45:06.055,0,0,0,0,0,0,0,0,0,
18.32067, 16:45:06.089,0,0,0,0,0,0,0,0,0,
18.35541, 16:45:06.123,0,0,0,0,0,0,0,0,0,
18.3908, 16:45:06.160,0,0,0,0,0,0,0,0,0,
18.42582, 16:45:06.196,0,0,0,0,0,0,0,0,0,
18.46065, 16:45:06.229,0,0,0,0,0,0,0,0,0,
18.49423, 16:45:06.263,0,0,0,0,0,0,0,0,0,
18.52845, 16:45:06.297,0,0,0,0,0,0,0,0,0,
18.56517, 16:45:06.335,0,0,0,0,0,0,0,0,0,
18.60527, 16:45:06.374,0,0,0,0,0,0,0,0,0,
18.63857, 16:45:06.406,0,0,0,0,0,0,0,0,0,
18.67326, 16:45:06.442,0,0,0,0,0,0,0,0,0,
18.70798, 16:45:06.478,0,0,0,0,0,0,0,0,0,
18.74487, 16:45:06.516,0,0,0,0,0,0,0,0,0,
18.78908, 16:45:06.561,0,0,0,0,0,0,0,0,0,
18.85087, 16:45:06.625,0,0,0,0,0,0,0,0,0,
18.8981, 16:45:06.668,0,0,0,0,0,0,0,0,0,
18.93564, 16:45:06.705,0,0,0,0,0,0,0,0,0,
18.97345, 16:45:06.742,0,0,0,0,0,0,0,0,0,
19.00807, 16:45:06.778,0,0,0,0,0,0,0,0,0,
19.04645, 16:45:06.816,0,0,0,0,0,0,0,0,0,
19.08103, 16:45:06.850,0,0,0,0,0,0,0,0,0,
19.11481, 16:45:06.884,0,0,0,0,0,0,0,0,0,
19.15295, 16:45:06.922,0,0,0,0,0,0,0,0,0,
19.18853, 16:45:06.958,0,0,0,0,0,0,0,0,0,
19.22342, 16:45:06.992,0,0,0,0,0,0,0,0,0,
19.25911, 16:45:07.026,0,0,0,0,0,0,0,0,0,
19.29082, 16:45:07.060,0,0,0,0,0,0,0,0,0,
19.35912, 16:45:07.129,0,0,0,0,0,0,0,0,0,
19.39508, 16:45:07.164,0,0,0,0,0,0,0,0,0,
19.42808, 16:45:07.197,0,0,0,0,0,0,0,0,0,
19.46481, 16:45:07.234,0,0,0,0,0,0,0,0,0,
19.50623, 16:45:07.276,0,0,0,0,0,0,0,0,0,
19.54747, 16:45:07.317,0,0,0,0,0,0,0,0,0,
19.58353, 16:45:07.353,0,0,0,0,0,0,0,0,0,
19.61867, 16:45:07.386,0,0,0,0,0,0,0,0,0,
19.6589, 16:45:07.428,0,0,0,0,0,0,0,0,0,
19.69681, 16:45:07.466,0,0,0,0,0,0,0,0,0,
19.73189, 16:45:07.501,0,0,0,0,0,0,0,0,0,
19.76647, 16:45:07.534,0,0,0,0,0,0,0,0,0,
19.80143, 16:45:07.570,0,0,0,0,0,0,0,0,0,
19.83741, 16:45:07.606,0,0,0,0,0,0,0,0,0,
19.87077, 16:45:07.640,0,0,0,0,0,0,0,0,0,
19.91208, 16:45:07.681,0,0,0,0,0,0,0,0,0,
19.94523, 16:45:07.716,0,0,0,0,0,0,0,0,0,
19.9856, 16:45:07.755,0,0,0,0,0,0,0,0,0,
20.0276, 16:45:07.802,0,0,0,0,0,0,0,0,0,
20.11724, 16:45:07.890,0,0,0,0,0,0,0,0,0,
20.16084, 16:45:07.931,0,0,0,0,0,0,0,0,0,
20.20917, 16:45:07.978,0,0,0,0,0,0,0,0,0,
20.26903, 16:45:08.040,0,0,0,0,0,0,0,0,0,
20.31259, 16:45:08.082,0,0,0,0,0,0,0,0,0,
20.3459, 16:45:08.115,0,0,0,0,0,0,0,0,0,
20.38406, 16:45:08.153,0,0,0,0,0,0,0,0,0,
20.42151, 16:45:08.191,0,0,0,0,0,0,0,0,0,
20.45959, 16:45:08.228,0,0,0,0,0,0,0,0,0,
20.49792, 16:45:08.267,0,0,0,0,0,0,0,0,0,
20.53235, 16:45:08.301,0,0,0,0,0,0,0,0,0,
20.5901, 16:45:08.360,0,0,0,0,0,0,0,0,0,
20.62713, 16:45:08.397,0,0,0,0,0,0,0,0,0,
20.66287, 16:45:08.432,0,0,0,0,0,0,0,0,0,
20.69831, 16:45:08.466,0,0,0,0,0,0,0,0,0,
20.73367, 16:45:08.503,0,0,0,0,0,0,0,0,0,
20.775, 16:45:08.545,0,0,0,0,0,0,0,0,0,
20.80944, 16:45:08.578,0,0,0,0,0,0,0,0,0,
20.84687, 16:45:08.616,0,0,0,0,0,0,0,0,0,
20.88108, 16:45:08.650,0,0,0,0,0,0,0,0,0,
20.91659, 16:45:08.684,0,0,0,0,0,0,0,0,0,
20.95012, 16:45:08.719,0,0,0,0,0,0,0,0,0,
20.98499, 16:45:08.754,0,0,0,0,0,0,0,0,0,
21.01871, 16:45:08.786,0,0,0,0,0,0,0,0,0,
21.05875, 16:45:08.828,0,0,0,0,0,0,0,0,0,
21.09782, 16:45:08.867,0,0,0,0,0,0,0,0,0,
21.13316, 16:45:08.903,0,0,0,0,0,0,0,0,0,
21.17096, 16:45:08.940,0,0,0,0,0,0,0,0,0,
21.2105, 16:45:08.980,0,0,0,0,0,0,0,0,0,
21.26854, 16:45:09.040,0,0,0,0,0,0,0,0,0,
21.31518, 16:45:09.084,0,0,0,0,0,0,0,0,0,
21.35208, 16:45:09.121,0,0,0,0,0,0,0,0,0,
21.38604, 16:45:09.155,0,0,0,0,0,0,0,0,0,
21.41911, 16:45:09.188,0,0,0,0,0,0,0,0,0,
21.50103, 16:45:09.273,0,0,0,0,0,0,0,0,0,
21.5629, 16:45:09.335,0,0,0,0,0,0,0,0,0,
21.60644, 16:45:09.375,0,0,0,0,0,0,0,0,0,
21.64298, 16:45:09.412,0,0,0,0,0,0,0,0,0,
21.67863, 16:45:09.447,0,0,0,0,0,0,0,0,0,
21.72887, 16:45:09.498,0,0,0,0,0,0,0,0,0,
21.77302, 16:45:09.543,0,0,0,0,0,0,0,0,0,
21.81072, 16:45:09.579,0,0,0,0,0,0,0,0,0,
21.84956, 16:45:09.620,0,0,0,0,0,0,0,0,0,
21.90113, 16:45:09.671,0,0,0,0,0,0,0,0,0,
21.94047, 16:45:09.709,0,0,0,0,0,0,0,0,0,
21.97929, 16:45:09.747,0,0,0,0,0,0,0,0,0,
22.01443, 16:45:09.784,0,0,0,0,0,0,0,0,0,
22.06733, 16:45:09.837,0,0,0,0,0,0,0,0,0,
22.10783, 16:45:09.876,0,0,0,0,0,0,0,0,0,
22.14249, 16:45:09.912,0,0,0,0,0,0,0,0,0,
22.18172, 16:45:09.951,0,0,0,0,0,0,0,0,0,
22.23199, 16:45:10.001,0,0,0,0,0,0,0,0,0,
22.274, 16:45:10.043,0,0,0,0,0,0,0,0,0,
22.30918, 16:45:10.078,0,0,0,0,0,0,0,0,0,
22.34678, 16:45:10.117,0,0,0,0,0,0,0,0,0,
22.45275, 16:45:10.226,0,0,0,0,0,0,0,0,0,
22.50494, 16:45:10.277,0,0,0,0,0,0,0,0,0,
22.56235, 16:45:10.333,0,0,0,0,0,0,0,0,0,
22.61191, 16:45:10.381,0,0,0,0,0,0,0,0,0,
22.65235, 16:45:10.421,0,0,0,0,0,0,0,0,0,
22.6934, 16:45:10.464,0,0,0,0,0,0,0,0,0,
22.75072, 16:45:10.520,0,0,0,0,0,0,0,0,0,
22.79191, 16:45:10.561,0,0,0,0,0,0,0,0,0,
22.83337, 16:45:10.602,0,0,0,0,0,0,0,0,0,
22.87084, 16:45:10.640,0,0,0,0,0,0,0,0,0,
22.94524, 16:45:10.716,0,0,0,0,0,0,0,0,0,
22.98851, 16:45:10.757,0,0,0,0,0,0,0,0,0,
23.02728, 16:45:10.796,0,0,0,0,0,0,0,0,0,
23.08079, 16:45:10.851,0,0,0,0,0,0,0,0,0,
23.12558, 16:45:10.894,0,0,0,0,0,0,0,0,0,
23.16555, 16:45:10.935,0,0,0,0,0,0,0,0,0,
23.20567, 16:45:10.975,0,0,0,0,0,0,0,0,0,
23.25879, 16:45:11.028,0,0,0,0,0,0,0,0,0,
23.30256, 16:45:11.072,0,0,0,0,0,0,0,0,0,
23.34085, 16:45:11.110,0,0,0,0,0,0,0,0,0,
23.37951, 16:45:11.148,0,0,0,0,0,0,0,0,0,
23.42612, 16:45:11.198,0,0,0,0,0,0,0,0,0,
23.46659, 16:45:11.237,0,0,0,0,0,0,0,0,0,
23.50583, 16:45:11.275,0,0,0,0,0,0,0,0,0,
23.54485, 16:45:11.315,0,0,0,0,0,0,0,0,0,
23.6094, 16:45:11.380,0,0,0,0,0,0,0,0,0,
23.6755, 16:45:11.447,0,0,0,0,0,0,0,0,0,
23.72209, 16:45:11.492,0,0,0,0,0,0,0,0,0,
23.77452, 16:45:11.544,0,0,0,0,0,0,0,0,0,
23.82161, 16:45:11.593,0,0,0,0,0,0,0,0,0,
23.86269, 16:45:11.633,0,0,0,0,0,0,0,0,0,
23.89966, 16:45:11.688,0,0,0,0,0,0,0,0,0,
23.97754, 16:45:11.753,0,0,0,0,0,0,0,0,0,
24.02854, 16:45:11.799,0,0,0,0,0,0,0,0,0,
24.06721, 16:45:11.837,0,0,0,0,0,0,0,0,0,
24.1371, 16:45:11.907,0,0,0,0,0,0,0,0,0,
24.18183, 16:45:11.952,0,0,0,0,0,0,0,0,0,
24.22076, 16:45:11.989,0,0,0,0,0,0,0,0,0,
24.28168, 16:45:12.051,0,0,0,0,0,0,0,0,0,
24.32437, 16:45:12.100,0,0,0,0,0,0,0,0,0,
24.36834, 16:45:12.137,0,0,0,0,0,0,0,0,0,
24.40811, 16:45:12.178,0,0,0,0,0,0,0,0,0,
24.46416, 16:45:12.236,0,0,0,0,0,0,0,0,0,
24.51151, 16:45:12.281,0,0,0,0,0,0,0,0,0,
24.54733, 16:45:12.317,0,0,0,0,0,0,0,0,0,
24.58839, 16:45:12.357,0,0,0,0,0,0,0,0,0,
24.64246, 16:45:12.412,0,0,0,0,0,0,0,0,0,
24.68267, 16:45:12.452,0,0,0,0,0,0,0,0,0,
24.72112, 16:45:12.490,0,0,0,0,0,0,0,0,0,
24.761, 16:45:12.531,0,0,0,0,0,0,0,0,0,
24.82556, 16:45:12.597,0,0,0,0,0,0,0,0,0,
24.89106, 16:45:12.662,0,0,0,0,0,0,0,0,0,
24.93346, 16:45:12.704,0,0,0,0,0,0,0,0,0,
24.98667, 16:45:12.757,0,0,0,0,0,0,0,0,0,
25.03315, 16:45:12.802,0,0,0,0,0,0,0,0,0,
25.07258, 16:45:12.844,0,0,0,0,0,0,0,0,0,
25.12156, 16:45:12.892,0,0,0,0,0,0,0,0,0,
25.17512, 16:45:12.943,0,0,0,0,0,0,0,0,0,
25.21376, 16:45:12.983,0,0,0,0,0,0,0,0,0,
25.25066, 16:45:13.019,0,0,0,0,0,0,0,0,0,
25.29006, 16:45:13.059,0,0,0,0,0,0,0,0,0,
25.34096, 16:45:13.112,0,0,0,0,0,0,0,0,0,
25.38463, 16:45:13.155,0,0,0,0,0,0,0,0,0,
25.42404, 16:45:13.195,0,0,0,0,0,0,0,0,0,
25.47003, 16:45:13.240,0,0,0,0,0,0,0,0,0,
25.52713, 16:45:13.297,0,0,0,0,0,0,0,0,0,
25.5738, 16:45:13.346,0,0,0,0,0,0,0,0,0,
25.61679, 16:45:13.387,0,0,0,0,0,0,0,0,0,
25.65366, 16:45:13.423,0,0,0,0,0,0,0,0,0,
25.70287, 16:45:13.473,0,0,0,0,0,0,0,0,0,
25.74887, 16:45:13.518,0,0,0,0,0,0,0,0,0,
25.78496, 16:45:13.554,0,0,0,0,0,0,0,0,0,
25.82153, 16:45:13.590,0,0,0,0,0,0,0,0,0,
25.87501, 16:45:13.644,0,0,0,0,0,0,0,0,0,
25.91496, 16:45:13.684,0,0,0,0,0,0,0,0,0,
25.95426, 16:45:13.724,0,0,0,0,0,0,0,0,0,
25.99454, 16:45:13.764,0,0,0,0,0,0,0,0,0,
26.05578, 16:45:13.829,0,0,0,0,0,0,0,0,0,
26.12427, 16:45:13.897,0,0,0,0,0,0,0,0,0,
26.17315, 16:45:13.943,0,0,0,0,0,0,0,0,0,
26.22745, 16:45:13.998,0,0,0,0,0,0,0,0,0,
26.27446, 16:45:14.043,0,0,0,0,0,0,0,0,0,
26.31112, 16:45:14.080,0,0,0,0,0,0,0,0,0,
26.34923, 16:45:14.119,0,0,0,0,0,0,0,0,0,
26.40359, 16:45:14.174,0,0,0,0,0,0,0,0,0,
26.44503, 16:45:14.215,0,0,0,0,0,0,0,0,0,
26.48369, 16:45:14.253,0,0,0,0,0,0,0,0,0,
26.5225, 16:45:14.291,0,0,0,0,0,0,0,0,0,
26.5764, 16:45:14.346,0,0,0,0,0,0,0,0,0,
26.62045, 16:45:14.390,0,0,0,0,0,0,0,0,0,
26.65958, 16:45:14.427,0,0,0,0,0,0,0,0,0,
26.69878, 16:45:14.468,0,0,0,0,0,0,0,0,0,
26.75087, 16:45:14.521,0,0,0,0,0,0,0,0,0,
26.79117, 16:45:14.560,0,0,0,0,0,0,0,0,0,
26.84497, 16:45:14.615,0,0,0,0,0,0,0,0,0,
26.88547, 16:45:14.654,0,0,0,0,0,0,0,0,0,
26.93655, 16:45:14.706,0,0,0,0,0,0,0,0,0,
26.98043, 16:45:14.750,0,0,0,0,0,0,0,0,0,
27.02116, 16:45:14.790,0,0,0,0,0,0,0,0,0,
27.06174, 16:45:14.831,0,0,0,0,0,0,0,0,0,
27.11151, 16:45:14.880,0,0,0,0,0,0,0,0,0,
27.14951, 16:45:14.919,0,0,0,0,0,0,0,0,0,
27.18739, 16:45:14.956,0,0,0,0,0,0,0,0,0,
27.25165, 16:45:15.023,0,0,0,0,0,0,0,0,0,
27.33336, 16:45:15.105,0,0,0,0,0,0,0,0,0,
27.38232, 16:45:15.153,0,0,0,0,0,0,0,0,0,
27.42186, 16:45:15.191,0,0,0,0,0,0,0,0,0,
27.4728, 16:45:15.242,0,0,0,0,0,0,0,0,0,
27.52366, 16:45:15.294,0,0,0,0,0,0,0,0,0,
27.56359, 16:45:15.334,0,0,0,0,0,0,0,0,0,
27.60987, 16:45:15.380,0,0,0,0,0,0,0,0,0,
27.66402, 16:45:15.435,0,0,0,0,0,0,0,0,0,
27.70722, 16:45:15.477,0,0,0,0,0,0,0,0,0,
27.75011, 16:45:15.520,0,0,0,0,0,0,0,0,0,
27.79247, 16:45:15.563,0,0,0,0,0,0,0,0,0,
27.85139, 16:45:15.622,0,0,0,0,0,0,0,0,0,
27.89416, 16:45:15.663,0,0,0,0,0,0,0,0,0,
27.93108, 16:45:15.700,0,0,0,0,0,0,0,0,0,
27.97364, 16:45:15.742,0,0,0,0,0,0,0,0,0,
28.02585, 16:45:15.797,0,0,0,0,0,0,0,0,0,
28.06767, 16:45:15.837,0,0,0,0,0,0,0,0,0,
28.1051, 16:45:15.874,0,0,0,0,0,0,0,0,0,
28.1427, 16:45:15.911,0,0,0,0,0,0,0,0,0,
28.19728, 16:45:15.967,0,0,0,0,0,0,0,0,0,
28.23751, 16:45:16.006,0,0,0,0,0,0,0,0,0,
28.27509, 16:45:16.044,0,0,0,0,0,0,0,0,0,
28.31297, 16:45:16.082,0,0,0,0,0,0,0,0,0,
28.36205, 16:45:16.133,0,0,0,0,0,0,0,0,0,
28.41075, 16:45:16.181,0,0,0,0,0,0,0,0,0,
28.45769, 16:45:16.230,0,0,0,0,0,0,0,0,0,
28.52876, 16:45:16.302,0,0,0,0,0,0,0,0,0,
28.59324, 16:45:16.364,0,0,0,0,0,0,0,0,0,
28.64173, 16:45:16.411,0,0,0,0,0,0,0,0,0,
28.68, 16:45:16.448,0,0,0,0,0,0,0,0,0,
28.73003, 16:45:16.500,0,0,0,0,0,0,0,0,0,
28.77265, 16:45:16.541,0,0,0,0,0,0,0,0,0,
28.81154, 16:45:16.580,0,0,0,0,0,0,0,0,0,
28.85309, 16:45:16.622,0,0,0,0,0,0,0,0,0,
28.90415, 16:45:16.675,0,0,0,0,0,0,0,0,0,
28.94426, 16:45:16.714,0,0,0,0,0,0,0,0,0,
28.98221, 16:45:16.751,0,0,0,0,0,0,0,0,0,
29.02289, 16:45:16.792,0,0,0,0,0,0,0,0,0,
29.07855, 16:45:16.849,0,0,0,0,0,0,0,0,0,
29.12515, 16:45:16.896,0,0,0,0,0,0,0,0,0,
29.17292, 16:45:16.941,0,0,0,0,0,0,0,0,0,
29.22311, 16:45:16.994,0,0,0,0,0,0,0,0,0,
29.26837, 16:45:17.038,0,0,0,0,0,0,0,0,0,
29.30536, 16:45:17.075,0,0,0,0,0,0,0,0,0,
29.34317, 16:45:17.112,0,0,0,0,0,0,0,0,0,
29.39392, 16:45:17.163,0,0,0,0,0,0,0,0,0,
29.43839, 16:45:17.208,0,0,0,0,0,0,0,0,0,
29.48291, 16:45:17.254,0,0,0,0,0,0,0,0,0,
29.52322, 16:45:17.293,0,0,0,0,0,0,0,0,0,
29.57723, 16:45:17.347,0,0,0,0,0,0,0,0,0,
29.62202, 16:45:17.393,0,0,0,0,0,0,0,0,0,
29.66604, 16:45:17.437,0,0,0,0,0,0,0,0,0,
29.72661, 16:45:17.499,0,0,0,0,0,0,0,0,0,
29.7939, 16:45:17.565,0,0,0,0,0,0,0,0,0,
29.83958, 16:45:17.608,0,0,0,0,0,0,0,0,0,
29.87901, 16:45:17.648,0,0,0,0,0,0,0,0,0,
29.93999, 16:45:17.711,0,0,0,0,0,0,0,0,0,
29.98731, 16:45:17.759,0,0,0,0,0,0,0,0,0,
30.02683, 16:45:17.796,0,0,0,0,0,0,0,0,0,
30.07033, 16:45:17.840,0,0,0,0,0,0,0,0,0,
30.12449, 16:45:17.894,0,0,0,0,0,0,0,0,0,
30.16782, 16:45:17.938,0,0,0,0,0,0,0,0,0,
30.20616, 16:45:17.976,0,0,0,0,0,0,0,0,0,
30.25155, 16:45:18.021,0,0,0,0,0,0,0,0,0,
30.30939, 16:45:18.079,0,0,0,0,0,0,0,0,0,
30.36195, 16:45:18.133,0,0,0,0,0,0,0,0,0,
30.41429, 16:45:18.185,0,0,0,0,0,0,0,0,0,
30.4716, 16:45:18.242,0,0,0,0,0,0,0,0,0,
30.52138, 16:45:18.292,0,0,0,0,0,0,0,0,0,
30.56844, 16:45:18.338,0,0,0,0,0,0,0,0,0,
30.63215, 16:45:18.403,0,0,0,0,0,0,0,0,0,
30.68371, 16:45:18.454,0,0,0,0,0,0,0,0,0,
30.73452, 16:45:18.505,0,0,0,0,0,0,0,0,0,
30.79216, 16:45:18.563,0,0,0,0,0,0,0,0,0,
30.85541, 16:45:18.626,0,0,0,0,0,0,0,0,0,
30.91356, 16:45:18.686,0,0,0,0,0,0,0,0,0,
31.00244, 16:45:18.775,0,0,0,0,0,0,0,0,0,
31.06533, 16:45:18.836,0,0,0,0,0,0,0,0,0,
31.12536, 16:45:18.897,0,0,0,0,0,0,0,0,0,
31.17597, 16:45:18.945,0,0,0,0,0,0,0,0,0,
31.22101, 16:45:18.991,0,0,0,0,0,0,0,0,0,
31.28223, 16:45:19.051,0,0,0,0,0,0,0,0,0,
31.33172, 16:45:19.101,0,0,0,0,0,0,0,0,0,
31.37639, 16:45:19.146,0,0,0,0,0,0,0,0,0,
31.42451, 16:45:19.195,0,0,0,0,0,0,0,0,0,
31.46768, 16:45:19.239,0,0,0,0,0,0,0,0,0,
31.51092, 16:45:19.281,0,0,0,0,0,0,0,0,0,
31.55551, 16:45:19.325,0,0,0,0,0,0,0,0,0,
31.61984, 16:45:19.391,0,0,0,0,0,0,0,0,0,
31.66488, 16:45:19.435,0,0,0,0,0,0,0,0,0,
31.70661, 16:45:19.475,0,0,0,0,0,0,0,0,0,
31.75838, 16:45:19.527,0,0,0,0,0,0,0,0,0,
31.79919, 16:45:19.568,0,0,0,0,0,0,0,0,0,
31.83663, 16:45:19.605,0,0,0,0,0,0,0,0,0,
31.87935, 16:45:19.648,0,0,0,0,0,0,0,0,0,
31.9381, 16:45:19.707,0,0,0,0,0,0,0,0,0,
31.98098, 16:45:19.751,0,0,0,0,0,0,0,0,0,
32.02263, 16:45:19.792,0,0,0,0,0,0,0,0,0,
32.06765, 16:45:19.838,0,0,0,0,0,0,0,0,0,
32.14533, 16:45:19.919,0,0,0,0,0,0,0,0,0,
32.2034, 16:45:19.974,0,0,0,0,0,0,0,0,0,
32.25064, 16:45:20.019,0,0,0,0,0,0,0,0,0,
32.30831, 16:45:20.078,0,0,0,0,0,0,0,0,0,
32.35299, 16:45:20.122,0,0,0,0,0,0,0,0,0,
32.40205, 16:45:20.173,0,0,0,0,0,0,0,0,0,
32.46043, 16:45:20.232,0,0,0,0,0,0,0,0,0,
32.51227, 16:45:20.281,0,0,0,0,0,0,0,0,0,
32.55667, 16:45:20.326,0,0,0,0,0,0,0,0,0,
32.61802, 16:45:20.389,0,0,0,0,0,0,0,0,0,
32.66543, 16:45:20.435,0,0,0,0,0,0,0,0,0,
32.70527, 16:45:20.475,0,0,0,0,0,0,0,0,0,
32.74531, 16:45:20.515,0,0,0,0,0,0,0,0,0,
32.79607, 16:45:20.565,0,0,0,0,0,0,0,0,0,
32.84031, 16:45:20.611,0,0,0,0,0,0,0,0,0,
32.87786, 16:45:20.645,0,0,0,0,0,0,0,0,0,
32.91378, 16:45:20.683,0,0,0,0,0,0,0,0,0,
32.96748, 16:45:20.737,0,0,0,0,0,0,0,0,0,
33.01142, 16:45:20.781,0,0,0,0,0,0,0,0,0,
33.0768, 16:45:20.848,0,0,0,0,0,0,0,0,0,
33.1431, 16:45:20.915,0,0,0,0,0,0,0,0,0,
33.18684, 16:45:20.956,0,0,0,0,0,0,0,0,0,
33.22539, 16:45:20.994,0,0,0,0,0,0,0,0,0,
33.31362, 16:45:21.088,0,0,0,0,0,0,0,0,0,
33.38777, 16:45:21.160,0,0,0,0,0,0,0,0,0,
33.43637, 16:45:21.206,0,0,0,0,0,0,0,0,0,
33.47902, 16:45:21.247,0,0,0,0,0,0,0,0,0,
33.52894, 16:45:21.298,0,0,0,0,0,0,0,0,0,
33.56945, 16:45:21.338,0,0,0,0,0,0,0,0,0,
33.60897, 16:45:21.378,0,0,0,0,0,0,0,0,0,
33.66223, 16:45:21.431,0,0,0,0,0,0,0,0,0,
33.71719, 16:45:21.485,0,0,0,0,0,0,0,0,0,
33.75911, 16:45:21.528,0,0,0,0,0,0,0,0,0,
33.79769, 16:45:21.566,0,0,0,0,0,0,0,0,0,
33.8381, 16:45:21.608,0,0,0,0,0,0,0,0,0,
33.89343, 16:45:21.664,0,0,0,0,0,0,0,0,0,
33.93668, 16:45:21.707,0,0,0,0,0,0,0,0,0,
33.97248, 16:45:21.742,0,0,0,0,0,0,0,0,0,
34.00761, 16:45:21.777,0,0,0,0,0,0,0,0,0,
34.06429, 16:45:21.835,0,0,0,0,0,0,0,0,0,
34.10714, 16:45:21.877,0,0,0,0,0,0,0,0,0,
34.1543, 16:45:21.925,0,0,0,0,0,0,0,0,0,
34.19199, 16:45:21.961,0,0,0,0,0,0,0,0,0,
34.2429, 16:45:22.013,0,0,0,0,0,0,0,0,0,
34.28256, 16:45:22.052,0,0,0,0,0,0,0,0,0,
34.31802, 16:45:22.086,0,0,0,0,0,0,0,0,0,
34.35728, 16:45:22.127,0,0,0,0,0,0,0,0,0,
34.40973, 16:45:22.180,0,0,0,0,0,0,0,0,0,
34.45694, 16:45:22.226,0,0,0,0,0,0,0,0,0,
34.49765, 16:45:22.274,0,0,0,0,0,0,0,0,0,
34.55893, 16:45:22.331,0,0,0,0,0,0,0,0,0,
34.62498, 16:45:22.397,0,0,0,0,0,0,0,0,0,
34.6727, 16:45:22.441,0,0,0,0,0,0,0,0,0,
34.71223, 16:45:22.481,0,0,0,0,0,0,0,0,0,
34.76358, 16:45:22.533,0,0,0,0,0,0,0,0,0,
34.8073, 16:45:22.576,0,0,0,0,0,0,0,0,0,
34.84727, 16:45:22.617,0,0,0,0,0,0,0,0,0,
34.88546, 16:45:22.654,0,0,0,0,0,0,0,0,0,
34.93158, 16:45:22.700,0,0,0,0,0,0,0,0,0,
34.97301, 16:45:22.741,0,0,0,0,0,0,0,0,0,
35.01167, 16:45:22.780,0,0,0,0,0,0,0,0,0,
35.04768, 16:45:22.817,0,0,0,0,0,0,0,0,0,
35.09698, 16:45:22.865,0,0,0,0,0,0,0,0,0,
35.1347, 16:45:22.904,0,0,0,0,0,0,0,0,0,
35.16903, 16:45:22.938,0,0,0,0,0,0,0,0,0,
35.20856, 16:45:22.977,0,0,0,0,0,0,0,0,0,
35.25895, 16:45:23.028,0,0,0,0,0,0,0,0,0,
35.2996, 16:45:23.069,0,0,0,0,0,0,0,0,0,
35.33886, 16:45:23.108,0,0,0,0,0,0,0,0,0,
35.38025, 16:45:23.152,0,0,0,0,0,0,0,0,0,
35.43585, 16:45:23.206,0,0,0,0,0,0,0,0,0,
35.48597, 16:45:23.256,0,0,0,0,0,0,0,0,0,
35.52458, 16:45:23.293,0,0,0,0,0,0,0,0,0,
35.55954, 16:45:23.328,0,0,0,0,0,0,0,0,0,
35.6083, 16:45:23.379,0,0,0,0,0,0,0,0,0,
35.6534, 16:45:23.423,0,0,0,0,0,0,0,0,0,
35.70251, 16:45:23.475,0,0,0,0,0,0,0,0,0,
35.76557, 16:45:23.536,0,0,0,0,0,0,0,0,0,
35.81922, 16:45:23.589,0,0,0,0,0,0,0,0,0,
35.8656, 16:45:23.636,0,0,0,0,0,0,0,0,0,
35.90451, 16:45:23.673,0,0,0,0,0,0,0,0,0,
35.94071, 16:45:23.709,0,0,0,0,0,0,0,0,0,
35.99115, 16:45:23.760,0,0,0,0,0,0,0,0,0,
36.03233, 16:45:23.800,0,0,0,0,0,0,0,0,0,
36.06745, 16:45:23.836,0,0,0,0,0,0,0,0,0,
36.10649, 16:45:23.875,0,0,0,0,0,0,0,0,0,
36.1537, 16:45:23.924,0,0,0,0,0,0,0,0,0,
36.19363, 16:45:23.964,0,0,0,0,0,0,0,0,0,
36.22689, 16:45:23.997,0,0,0,0,0,0,0,0,0,
36.26187, 16:45:24.030,0,0,0,0,0,0,0,0,0,
36.3083, 16:45:24.078,0,0,0,0,0,0,0,0,0,
36.35289, 16:45:24.136,0,0,0,0,0,0,0,0,0,
36.40569, 16:45:24.176,0,0,0,0,0,0,0,0,0,
36.49362, 16:45:24.268,0,0,0,0,0,0,0,0,0,
36.54619, 16:45:24.317,0,0,0,0,0,0,0,0,0,
36.59447, 16:45:24.364,0,0,0,0,0,0,0,0,0,
36.63275, 16:45:24.401,0,0,0,0,0,0,0,0,0,
36.67018, 16:45:24.439,0,0,0,0,0,0,0,0,0,
36.72397, 16:45:24.494,0,0,0,0,0,0,0,0,0,
36.76529, 16:45:24.534,0,0,0,0,0,0,0,0,0,
36.80414, 16:45:24.573,0,0,0,0,0,0,0,0,0,
36.84155, 16:45:24.611,0,0,0,0,0,0,0,0,0,
36.90163, 16:45:24.674,0,0,0,0,0,0,0,0,0,
36.98491, 16:45:24.757,0,0,0,0,0,0,0,0,0,
37.03197, 16:45:24.800,0,0,0,0,0,0,0,0,0,
37.08535, 16:45:24.854,0,0,0,0,0,0,0,0,0,
37.14336, 16:45:24.913,0,0,0,0,0,0,0,0,0,
37.18164, 16:45:24.951,0,0,0,0,0,0,0,0,0,
37.22417, 16:45:24.994,0,0,0,0,0,0,0,0,0,
37.27424, 16:45:25.043,0,0,0,0,0,0,0,0,0,
37.30956, 16:45:25.080,0,0,0,0,0,0,0,0,0,
37.34676, 16:45:25.117,0,0,0,0,0,0,0,0,0,
37.39048, 16:45:25.159,0,0,0,0,0,0,0,0,0,
37.43827, 16:45:25.208,0,0,0,0,0,0,0,0,0,
37.4765, 16:45:25.246,0,0,0,0,0,0,0,0,0,
37.5119, 16:45:25.280,0,0,0,0,0,0,0,0,0,
37.55249, 16:45:25.321,0,0,0,0,0,0,0,0,0,
37.60235, 16:45:25.373,0,0,0,0,0,0,0,0,0,
37.63963, 16:45:25.408,0,0,0,0,0,0,0,0,0,
37.67671, 16:45:25.446,0,0,0,0,0,0,0,0,0,
37.73109, 16:45:25.500,0,0,0,0,0,0,0,0,0,
37.78186, 16:45:25.551,0,0,0,0,0,0,0,0,0,
37.81713, 16:45:25.585,0,0,0,0,0,0,0,0,0,
37.85423, 16:45:25.623,0,0,0,0,0,0,0,0,0,
37.89888, 16:45:25.668,0,0,0,0,0,0,0,0,0,
37.94701, 16:45:25.718,0,0,0,0,0,0,0,0,0,
37.98361, 16:45:25.752,0,0,0,0,0,0,0,0,0,
38.01823, 16:45:25.787,0,0,0,0,0,0,0,0,0,
38.05677, 16:45:25.827,0,0,0,0,0,0,0,0,0,
38.12194, 16:45:25.895,0,0,0,0,0,0,0,0,0,
38.18666, 16:45:25.958,0,0,0,0,0,0,0,0,0,
38.23736, 16:45:26.007,0,0,0,0,0,0,0,0,0,
38.28936, 16:45:26.059,0,0,0,0,0,0,0,0,0,
38.32788, 16:45:26.097,0,0,0,0,0,0,0,0,0,
38.36622, 16:45:26.135,0,0,0,0,0,0,0,0,0,
38.40842, 16:45:26.176,0,0,0,0,0,0,0,0,0,
38.45849, 16:45:26.227,0,0,0,0,0,0,0,0,0,
38.49475, 16:45:26.263,0,0,0,0,0,0,0,0,0,
38.53378, 16:45:26.303,0,0,0,0,0,0,0,0,0,
38.57574, 16:45:26.345,0,0,0,0,0,0,0,0,0,
38.62738, 16:45:26.397,0,0,0,0,0,0,0,0,0,
38.66424, 16:45:26.433,0,0,0,0,0,0,0,0,0,
38.69935, 16:45:26.468,0,0,0,0,0,0,0,0,0,
38.75225, 16:45:26.523,0,0,0,0,0,0,0,0,0,
38.79905, 16:45:26.567,0,0,0,0,0,0,0,0,0,
38.84298, 16:45:26.613,0,0,0,0,0,0,0,0,0,
38.88057, 16:45:26.649,0,0,0,0,0,0,0,0,0,
38.92185, 16:45:26.691,0,0,0,0,0,0,0,0,0,
38.97248, 16:45:26.742,0,0,0,0,0,0,0,0,0,
39.00811, 16:45:26.777,0,0,0,0,0,0,0,0,0,
39.04531, 16:45:26.814,0,0,0,0,0,0,0,0,0,
39.08525, 16:45:26.853,0,0,0,0,0,0,0,0,0,
39.1339, 16:45:26.902,0,0,0,0,0,0,0,0,0,
39.17169, 16:45:26.940,0,0,0,0,0,0,0,0,0,
39.20682, 16:45:26.977,0,0,0,0,0,0,0,0,0,
39.24989, 16:45:27.019,0,0,0,0,0,0,0,0,0,
39.30202, 16:45:27.073,0,0,0,0,0,0,0,0,0,
39.34856, 16:45:27.122,0,0,0,0,0,0,0,0,0,
39.40726, 16:45:27.177,0,0,0,0,0,0,0,0,0,
39.46447, 16:45:27.236,0,0,0,0,0,0,0,0,0,
39.50683, 16:45:27.277,0,0,0,0,0,0,0,0,0,
39.54361, 16:45:27.313,0,0,0,0,0,0,0,0,0,
39.58784, 16:45:27.357,0,0,0,0,0,0,0,0,0,
39.64381, 16:45:27.414,0,0,0,0,0,0,0,0,0,
39.6898, 16:45:27.459,0,0,0,0,0,0,0,0,0,
39.72701, 16:45:27.496,0,0,0,0,0,0,0,0,0,
39.76402, 16:45:27.533,0,0,0,0,0,0,0,0,0,
39.81303, 16:45:27.581,0,0,0,0,0,0,0,0,0,
39.85616, 16:45:27.625,0,0,0,0,0,0,0,0,0,
39.89314, 16:45:27.661,0,0,0,0,0,0,0,0,0,
39.9366, 16:45:27.707,0,0,0,0,0,0,0,0,0,
39.98669, 16:45:27.756,0,0,0,0,0,0,0,0,0,
40.02819, 16:45:27.797,0,0,0,0,0,0,0,0,0,
40.06527, 16:45:27.835,0,0,0,0,0,0,0,0,0,
40.10263, 16:45:27.872,0,0,0,0,0,0,0,0,0,
40.15252, 16:45:27.921,0,0,0,0,0,0,0,0,0,
40.1951, 16:45:27.964,0,0,0,0,0,0,0,0,0,
40.23041, 16:45:27.999,0,0,0,0,0,0,0,0,0,
40.27208, 16:45:28.041,0,0,0,0,0,0,0,0,0,
40.32171, 16:45:28.092,0,0,0,0,0,0,0,0,0,
40.36319, 16:45:28.132,0,0,0,0,0,0,0,0,0,
40.39854, 16:45:28.166,0,0,0,0,0,0,0,0,0,
40.43325, 16:45:28.203,0,0,0,0,0,0,0,0,0,
40.50599, 16:45:28.280,0,0,0,0,0,0,0,0,0,
40.60715, 16:45:28.380,0,0,0,0,0,0,0,0,0,
40.66715, 16:45:28.437,0,0,0,0,0,0,0,0,0,
40.7172, 16:45:28.485,0,0,0,0,0,0,0,0,0,
40.79579, 16:45:28.566,0,0,0,0,0,0,0,0,0,
40.86611, 16:45:28.637,0,0,0,0,0,0,0,0,0,
40.90895, 16:45:28.678,0,0,0,0,0,0,0,0,0,
40.95119, 16:45:28.720,0,0,0,0,0,0,0,0,0,
41.00324, 16:45:28.772,0,0,0,0,0,0,0,0,0,
41.04559, 16:45:28.815,0,0,0,0,0,0,0,0,0,
41.08407, 16:45:28.853,0,0,0,0,0,0,0,0,0,
41.12133, 16:45:28.890,0,0,0,0,0,0,0,0,0,
41.17432, 16:45:28.944,0,0,0,0,0,0,0,0,0,
41.21551, 16:45:28.985,0,0,0,0,0,0,0,0,0,
41.28283, 16:45:29.054,0,0,0,0,0,0,0,0,0,
41.33311, 16:45:29.102,0,0,0,0,0,0,0,0,0,
41.37664, 16:45:29.145,0,0,0,0,0,0,0,0,0,
41.41446, 16:45:29.183,0,0,0,0,0,0,0,0,0,
41.45344, 16:45:29.222,0,0,0,0,0,0,0,0,0,
41.50309, 16:45:29.273,0,0,0,0,0,0,0,0,0,
41.54452, 16:45:29.313,0,0,0,0,0,0,0,0,0,
41.5869, 16:45:29.356,0,0,0,0,0,0,0,0,0,
41.6262, 16:45:29.395,0,0,0,0,0,0,0,0,0,
41.67752, 16:45:29.448,0,0,0,0,0,0,0,0,0,
41.76173, 16:45:29.538,0,0,0,0,0,0,0,0,0,
41.81972, 16:45:29.589,0,0,0,0,0,0,0,0,0,
41.87263, 16:45:29.643,0,0,0,0,0,0,0,0,0,
41.91438, 16:45:29.684,0,0,0,0,0,0,0,0,0,
41.95301, 16:45:29.723,0,0,0,0,0,0,0,0,0,
41.989, 16:45:29.759,0,0,0,0,0,0,0,0,0,
42.03997, 16:45:29.808,0,0,0,0,0,0,0,0,0,
42.08139, 16:45:29.852,0,0,0,0,0,0,0,0,0,
42.11857, 16:45:29.886,0,0,0,0,0,0,0,0,0,
42.15334, 16:45:29.922,0,0,0,0,0,0,0,0,0,
42.20269, 16:45:29.973,0,0,0,0,0,0,0,0,0,
42.24824, 16:45:30.017,0,0,0,0,0,0,0,0,0,
42.28646, 16:45:30.055,0,0,0,0,0,0,0,0,0,
42.32261, 16:45:30.092,0,0,0,0,0,0,0,0,0,
42.37244, 16:45:30.141,0,0,0,0,0,0,0,0,0,
42.41353, 16:45:30.182,0,0,0,0,0,0,0,0,0,
42.45382, 16:45:30.222,0,0,0,0,0,0,0,0,0,
42.49026, 16:45:30.260,0,0,0,0,0,0,0,0,0,
42.54056, 16:45:30.311,0,0,0,0,0,0,0,0,0,
42.58509, 16:45:30.354,0,0,0,0,0,0,0,0,0,
42.62092, 16:45:30.389,0,0,0,0,0,0,0,0,0,
42.66098, 16:45:30.430,0,0,0,0,0,0,0,0,0,
42.71751, 16:45:30.487,0,0,0,0,0,0,0,0,0,
42.77794, 16:45:30.548,0,0,0,0,0,0,0,0,0,
42.8139, 16:45:30.583,0,0,0,0,0,0,0,0,0,
42.86378, 16:45:30.633,0,0,0,0,0,0,0,0,0,
42.91285, 16:45:30.683,0,0,0,0,0,0,0,0,0,
42.95809, 16:45:30.731,0,0,0,0,0,0,0,0,0,
43.0176, 16:45:30.788,0,0,0,0,0,0,0,0,0,
43.07185, 16:45:30.842,0,0,0,0,0,0,0,0,0,
43.1148, 16:45:30.885,0,0,0,0,0,0,0,0,0,
43.15087, 16:45:30.919,0,0,0,0,0,0,0,0,0,
43.18834, 16:45:30.956,0,0,0,0,0,0,0,0,0,
43.23519, 16:45:31.004,0,0,0,0,0,0,0,0,0,
43.27496, 16:45:31.043,0,0,0,0,0,0,0,0,0,
43.31279, 16:45:31.081,0,0,0,0,0,0,0,0,0,
43.34859, 16:45:31.118,0,0,0,0,0,0,0,0,0,
43.39767, 16:45:31.168,0,0,0,0,0,0,0,0,0,
43.43664, 16:45:31.206,0,0,0,0,0,0,0,0,0,
43.47122, 16:45:31.240,0,0,0,0,0,0,0,0,0,
43.50832, 16:45:31.277,0,0,0,0,0,0,0,0,0,
43.56029, 16:45:31.330,0,0,0,0,0,0,0,0,0,
43.6099, 16:45:31.379,0,0,0,0,0,0,0,0,0,
43.6513, 16:45:31.422,0,0,0,0,0,0,0,0,0,
43.69006, 16:45:31.460,0,0,0,0,0,0,0,0,0,
43.74061, 16:45:31.511,0,0,0,0,0,0,0,0,0,
43.78405, 16:45:31.553,0,0,0,0,0,0,0,0,0,
43.82479, 16:45:31.594,0,0,0,0,0,0,0,0,0,
43.86109, 16:45:31.630,0,0,0,0,0,0,0,0,0,
43.90902, 16:45:31.678,0,0,0,0,0,0,0,0,0,
43.94803, 16:45:31.717,0,0,0,0,0,0,0,0,0,
43.99117, 16:45:31.760,0,0,0,0,0,0,0,0,0,
44.02937, 16:45:31.798,0,0,0,0,0,0,0,0,0,
44.08861, 16:45:31.861,0,0,0,0,0,0,0,0,0,
44.14139, 16:45:31.912,0,0,0,0,0,0,0,0,0,
44.19852, 16:45:31.970,0,0,0,0,0,0,0,0,0,
44.26812, 16:45:32.041,0,0,0,0,0,0,0,0,0,
44.3161, 16:45:32.084,0,0,0,0,0,0,0,0,0,
44.35912, 16:45:32.127,0,0,0,0,0,0,0,0,0,
44.41098, 16:45:32.181,0,0,0,0,0,0,0,0,0,
44.46511, 16:45:32.235,0,0,0,0,0,0,0,0,0,
44.50653, 16:45:32.276,0,0,0,0,0,0,0,0,0,
44.5446, 16:45:32.315,0,0,0,0,0,0,0,0,0,
44.59951, 16:45:32.369,0,0,0,0,0,0,0,0,0,
44.63891, 16:45:32.407,0,0,0,0,0,0,0,0,0,
44.67949, 16:45:32.448,0,0,0,0,0,0,0,0,0,
44.71763, 16:45:32.487,0,0,0,0,0,0,0,0,0,
44.7678, 16:45:32.538,0,0,0,0,0,0,0,0,0,
44.80966, 16:45:32.579,0,0,0,0,0,0,0,0,0,
44.84658, 16:45:32.616,0,0,0,0,0,0,0,0,0,
44.88489, 16:45:32.655,0,0,0,0,0,0,0,0,0,
44.9333, 16:45:32.701,0,0,0,0,0,0,0,0,0,
44.97675, 16:45:32.942,0,0,0,0,0,0,0,0,0,
45.20735, 16:45:32.989,0,0,0,0,0,0,0,0,0,
45.27121, 16:45:33.042,0,0,0,0,0,0,0,0,0,
45.36585, 16:45:33.143,0,0,0,0,0,0,0,0,0,
45.45946, 16:45:33.231,0,0,0,0,0,0,0,0,0,
45.50657, 16:45:33.278,0,0,0,0,0,0,0,0,0,
45.54483, 16:45:33.314,0,0,0,0,0,0,0,0,0,
45.59697, 16:45:33.367,0,0,0,0,0,0,0,0,0,
45.63997, 16:45:33.409,0,0,0,0,0,0,0,0,0,
45.6754, 16:45:33.446,0,0,0,0,0,0,0,0,0,
45.7342, 16:45:33.507,0,0,0,0,0,0,0,0,0,
45.78745, 16:45:33.558,0,0,0,0,0,0,0,0,0,
45.82775, 16:45:33.597,0,0,0,0,0,0,0,0,0,
45.86704, 16:45:33.637,0,0,0,0,0,0,0,0,0,
45.90965, 16:45:33.679,0,0,0,0,0,0,0,0,0,
45.96865, 16:45:33.739,0,0,0,0,0,0,0,0,0,
46.01083, 16:45:33.780,0,0,0,0,0,0,0,0,0,
46.04763, 16:45:33.817,0,0,0,0,0,0,0,0,0,
46.08633, 16:45:33.856,0,0,0,0,0,0,0,0,0,
46.14186, 16:45:33.913,0,0,0,0,0,0,0,0,0,
46.18631, 16:45:33.955,0,0,0,0,0,0,0,0,0,
46.22287, 16:45:33.994,0,0,0,0,0,0,0,0,0,
46.26066, 16:45:34.029,0,0,0,0,0,0,0,0,0,
46.31096, 16:45:34.080,0,0,0,0,0,0,0,0,0,
46.35254, 16:45:34.122,0,0,0,0,0,0,0,0,0,
46.39277, 16:45:34.161,0,0,0,0,0,0,0,0,0,
46.42991, 16:45:34.199,0,0,0,0,0,0,0,0,0,
46.47864, 16:45:34.247,0,0,0,0,0,0,0,0,0,
46.52361, 16:45:34.297,0,0,0,0,0,0,0,0,0,
46.61785, 16:45:34.394,0,0,0,0,0,0,0,0,0,
46.69909, 16:45:34.475,0,0,0,0,0,0,0,0,0,
46.76886, 16:45:34.541,0,0,0,0,0,0,0,0,0,
46.83179, 16:45:34.603,0,0,0,0,0,0,0,0,0,
46.91052, 16:45:34.684,0,0,0,0,0,0,0,0,0,
46.97276, 16:45:34.748,0,0,0,0,0,0,0,0,0,
47.30609, 16:45:35.905,0,0,0,0,0,0,0,0,0,
47.38413, 16:45:35.976,0,0,0,0,0,0,0,0,0,
47.4464, 16:45:36.032,0,0,0,0,0,0,0,0,0,
47.5238, 16:45:36.117,0,0,0,0,0,0,0,0,0,
47.62914, 16:45:36.216,0,0,0,0,0,0,0,0,0,
47.68653, 16:45:36.278,0,0,0,0,0,0,0,0,0,
47.79428, 16:45:36.381,0,0,0,0,0,0,0,0,0,
47.84991, 16:45:36.433,0,0,0,0,0,0,0,0,0,
47.90512, 16:45:36.489,0,0,0,0,0,0,0,0,0,
47.9507, 16:45:36.533,0,0,0,0,0,0,0,0,0,
48.00002, 16:45:36.583,0,0,0,0,0,0,0,0,0,
48.05991, 16:45:36.642,0,0,0,0,0,0,0,0,0,
48.10277, 16:45:36.689,0,0,0,0,0,0,0,0,0,
48.17739, 16:45:36.767,0,0,0,0,0,0,0,0,0,
48.26558, 16:45:36.854,0,0,0,0,0,0,0,0,0,
48.32551, 16:45:36.913,0,0,0,0,0,0,0,0,0,
48.37077, 16:45:36.954,0,0,0,0,0,0,0,0,0,
48.43304, 16:45:37.016,0,0,0,0,0,0,0,0,0,
48.47835, 16:45:37.060,0,0,0,0,0,0,0,0,0,
48.51883, 16:45:37.101,0,0,0,0,0,0,0,0,0,
48.5644, 16:45:37.149,0,0,0,0,0,0,0,0,0,
48.62421, 16:45:37.209,0,0,0,0,0,0,0,0,0,
48.67483, 16:45:37.258,0,0,0,0,0,0,0,0,0,
48.72306, 16:45:37.307,0,0,0,0,0,0,0,0,0,
48.77995, 16:45:37.364,0,0,0,0,0,0,0,0,0,
48.82814, 16:45:37.412,0,0,0,0,0,0,0,0,0,
48.86845, 16:45:37.450,0,0,0,0,0,0,0,0,0,
48.9068, 16:45:37.489,0,0,0,0,0,0,0,0,0,
48.97246, 16:45:37.558,0,0,0,0,0,0,0,0,0,
49.02085, 16:45:37.605,0,0,0,0,0,0,0,0,0,
49.05931, 16:45:37.640,0,0,0,0,0,0,0,0,0,
49.11184, 16:45:37.695,0,0,0,0,0,0,0,0,0,
49.15773, 16:45:37.739,0,0,0,0,0,0,0,0,0,
49.19366, 16:45:37.778,0,0,0,0,0,0,0,0,0,
49.23774, 16:45:37.820,0,0,0,0,0,0,0,0,0,
49.29716, 16:45:37.882,0,0,0,0,0,0,0,0,0,
49.34246, 16:45:37.935,0,0,0,0,0,0,0,0,0,
49.41002, 16:45:37.999,0,0,0,0,0,0,0,0,0,
49.49915, 16:45:38.086,0,0,0,0,0,0,0,0,0,
49.5559, 16:45:38.142,0,0,0,0,0,0,0,0,0,
49.60202, 16:45:38.185,0,0,0,0,0,0,0,0,0,
49.65646, 16:45:38.238,0,0,0,0,0,0,0,0,0,
49.71249, 16:45:38.297,0,0,0,0,0,0,0,0,0,
49.76078, 16:45:38.347,0,0,0,0,0,0,0,0,0,
49.82093, 16:45:38.403,0,0,0,0,0,0,0,0,0,
49.86254, 16:45:38.444,0,0,0,0,0,0,0,0,0,
49.90835, 16:45:38.493,0,0,0,0,0,0,0,0,0,
49.96291, 16:45:38.547,0,0,0,0,0,0,0,0,0,
50.01951, 16:45:38.602,0,0,0,0,0,0,0,0,0,
50.06039, 16:45:38.648,0,0,0,0,0,0,0,0,0,
50.1452, 16:45:38.730,0,0,0,0,0,0,0,0,0,
50.23306, 16:45:38.820,0,0,0,0,0,0,0,0,0,
50.29102, 16:45:38.874,0,0,0,0,0,0,0,0,0,
50.32907, 16:45:38.911,0,0,0,0,0,0,0,0,0,
50.39973, 16:45:38.985,0,0,0,0,0,0,0,0,0,
50.45996, 16:45:39.052,0,0,0,0,0,0,0,0,0,
50.50616, 16:45:39.090,0,0,0,0,0,0,0,0,0,
50.58323, 16:45:39.167,0,0,0,0,0,0,0,0,0,
50.65211, 16:45:39.237,0,0,0,0,0,0,0,0,0,
50.71769, 16:45:39.303,0,0,0,0,0,0,0,0,0,
50.78177, 16:45:39.369,0,0,0,0,0,0,0,0,0,
50.83435, 16:45:39.418,0,0,0,0,0,0,0,0,0,
50.87569, 16:45:39.458,0,0,0,0,0,0,0,0,0,
50.93156, 16:45:39.515,0,0,0,0,0,0,0,0,0,
50.97684, 16:45:39.559,0,0,0,0,0,0,0,0,0,
51.01792, 16:45:39.599,0,0,0,0,0,0,0,0,0,
51.05481, 16:45:39.637,0,0,0,0,0,0,0,0,0,
51.1098, 16:45:39.694,0,0,0,0,0,0,0,0,0,
51.15827, 16:45:39.740,0,0,0,0,0,0,0,0,0,
51.19352, 16:45:39.777,0,0,0,0,0,0,0,0,0,
51.23254, 16:45:39.817,0,0,0,0,0,0,0,0,0,
51.29278, 16:45:39.876,0,0,0,0,0,0,0,0,0,
51.33296, 16:45:39.915,0,0,0,0,0,0,0,0,0,
51.37451, 16:45:39.958,0,0,0,0,0,0,0,0,0,
51.41403, 16:45:39.996,0,0,0,0,0,0,0,0,0,
51.46507, 16:45:40.049,0,0,0,0,0,0,0,0,0,
51.50918, 16:45:40.093,0,0,0,0,0,0,0,0,0,
51.55442, 16:45:40.137,0,0,0,0,0,0,0,0,0,
51.59333, 16:45:40.175,0,0,0,0,0,0,0,0,0,
51.64094, 16:45:40.226,0,0,0,0,0,0,0,0,0,
51.69415, 16:45:40.277,0,0,0,0,0,0,0,0,0,
51.7394, 16:45:40.322,0,0,0,0,0,0,0,0,0,
51.78048, 16:45:40.363,0,0,0,0,0,0,0,0,0,
51.84448, 16:45:40.429,0,0,0,0,0,0,0,0,0,
51.92923, 16:45:40.519,0,0,0,0,0,0,0,0,0,
51.97956, 16:45:40.567,0,0,0,0,0,0,0,0,0,
52.0618, 16:45:40.647,0,0,0,0,0,0,0,0,0,
52.1382, 16:45:40.722,0,0,0,0,0,0,0,0,0,
52.1911, 16:45:40.778,0,0,0,0,0,0,0,0,0,
52.23745, 16:45:40.821,0,0,0,0,0,0,0,0,0,
52.27788, 16:45:40.861,0,0,0,0,0,0,0,0,0,
52.3201, 16:45:40.905,0,0,0,0,0,0,0,0,0,
52.37362, 16:45:40.957,0,0,0,0,0,0,0,0,0,
52.41554, 16:45:40.998,0,0,0,0,0,0,0,0,0,
52.45077, 16:45:41.035,0,0,0,0,0,0,0,0,0,
52.48969, 16:45:41.071,0,0,0,0,0,0,0,0,0,
52.54218, 16:45:41.127,0,0,0,0,0,0,0,0,0,
52.58945, 16:45:41.171,0,0,0,0,0,0,0,0,0,
52.62486, 16:45:41.208,0,0,0,0,0,0,0,0,0,
52.66616, 16:45:41.249,0,0,0,0,0,0,0,0,0,
52.7228, 16:45:41.305,0,0,0,0,0,0,0,0,0,
52.76558, 16:45:41.349,0,0,0,0,0,0,0,0,0,
52.83339, 16:45:41.417,0,0,0,0,0,0,0,0,0,
52.88004, 16:45:41.464,0,0,0,0,0,0,0,0,0,
52.92474, 16:45:41.508,0,0,0,0,0,0,0,0,0,
52.98397, 16:45:41.568,0,0,0,0,0,0,0,0,0,
53.04071, 16:45:41.625,0,0,0,0,0,0,0,0,0,
53.09148, 16:45:41.675,0,0,0,0,0,0,0,0,0,
53.14766, 16:45:41.735,0,0,0,0,0,0,0,0,0,
53.22345, 16:45:41.809,0,0,0,0,0,0,0,0,0,
53.2798, 16:45:41.865,0,0,0,0,0,0,0,0,0,
53.32249, 16:45:41.906,0,0,0,0,0,0,0,0,0,
53.37265, 16:45:41.955,0,0,0,0,0,0,0,0,0,
53.42325, 16:45:42.005,0,0,0,0,0,0,0,0,0,
53.46313, 16:45:42.044,0,0,0,0,0,0,0,0,0,
53.49984, 16:45:42.082,0,0,0,0,0,0,0,0,0,
53.5594, 16:45:42.144,0,0,0,0,0,0,0,0,0,
53.60077, 16:45:42.185,0,0,0,0,0,0,0,0,0,
53.64072, 16:45:42.222,0,0,0,0,0,0,0,0,0,
53.67706, 16:45:42.259,0,0,0,0,0,0,0,0,0,
53.73011, 16:45:42.316,0,0,0,0,0,0,0,0,0,
53.77355, 16:45:42.360,0,0,0,0,0,0,0,0,0,
53.81781, 16:45:42.399,0,0,0,0,0,0,0,0,0,
53.8567, 16:45:42.439,0,0,0,0,0,0,0,0,0,
53.914, 16:45:42.498,0,0,0,0,0,0,0,0,0,
53.96108, 16:45:42.544,0,0,0,0,0,0,0,0,0,
53.99847, 16:45:42.580,0,0,0,0,0,0,0,0,0,
54.03564, 16:45:42.619,0,0,0,0,0,0,0,0,0,
54.0957, 16:45:42.679,0,0,0,0,0,0,0,0,0,
54.13931, 16:45:42.721,0,0,0,0,0,0,0,0,0,
54.17739, 16:45:42.760,0,0,0,0,0,0,0,0,0,
54.21788, 16:45:42.799,0,0,0,0,0,0,0,0,0,
54.27256, 16:45:42.857,0,0,0,0,0,0,0,0,0,
54.33094, 16:45:42.919,0,0,0,0,0,0,0,0,0,
54.39824, 16:45:42.985,0,0,0,0,0,0,0,0,0,
54.46931, 16:45:43.056,0,0,0,0,0,0,0,0,0,
54.51815, 16:45:43.101,0,0,0,0,0,0,0,0,0,
54.56614, 16:45:43.150,0,0,0,0,0,0,0,0,0,
54.61924, 16:45:43.201,0,0,0,0,0,0,0,0,0,
54.66411, 16:45:43.247,0,0,0,0,0,0,0,0,0,
54.70239, 16:45:43.284,0,0,0,0,0,0,0,0,0,
54.75109, 16:45:43.335,0,0,0,0,0,0,0,0,0,
54.81149, 16:45:43.395,0,0,0,0,0,0,0,0,0,
54.85386, 16:45:43.437,0,0,0,0,0,0,0,0,0,
54.89507, 16:45:43.476,0,0,0,0,0,0,0,0,0,
54.93271, 16:45:43.516,0,0,0,0,0,0,0,0,0,
54.9865, 16:45:43.570,0,0,0,0,0,0,0,0,0,
55.03826, 16:45:43.622,0,0,0,0,0,0,0,0,0,
55.07938, 16:45:43.660,0,0,0,0,0,0,0,0,0,
55.11515, 16:45:43.697,0,0,0,0,0,0,0,0,0,
55.16809, 16:45:43.751,0,0,0,0,0,0,0,0,0,
55.21263, 16:45:43.794,0,0,0,0,0,0,0,0,0,
55.25031, 16:45:43.835,0,0,0,0,0,0,0,0,0,
55.29381, 16:45:43.877,0,0,0,0,0,0,0,0,0,
55.34653, 16:45:43.931,0,0,0,0,0,0,0,0,0,
55.3906, 16:45:43.977,0,0,0,0,0,0,0,0,0,
55.43423, 16:45:44.017,0,0,0,0,0,0,0,0,0,
55.47831, 16:45:44.059,0,0,0,0,0,0,0,0,0,
55.53449, 16:45:44.120,0,0,0,0,0,0,0,0,0,
55.62442, 16:45:44.212,0,0,0,0,0,0,0,0,0,
55.67884, 16:45:44.264,0,0,0,0,0,0,0,0,0,
55.74565, 16:45:44.331,0,0,0,0,0,0,0,0,0,
55.79493, 16:45:44.378,0,0,0,0,0,0,0,0,0,
55.83958, 16:45:44.423,0,0,0,0,0,0,0,0,0,
55.89272, 16:45:44.476,0,0,0,0,0,0,0,0,0,
55.93975, 16:45:44.523,0,0,0,0,0,0,0,0,0,
55.98172, 16:45:44.567,0,0,0,0,0,0,0,0,0,
56.0252, 16:45:44.607,0,0,0,0,0,0,0,0,0,
56.07425, 16:45:44.657,0,0,0,0,0,0,0,0,0,
56.11601, 16:45:44.700,0,0,0,0,0,0,0,0,0,
56.16123, 16:45:44.745,0,0,0,0,0,0,0,0,0,
56.20111, 16:45:44.783,0,0,0,0,0,0,0,0,0,
56.25139, 16:45:44.835,0,0,0,0,0,0,0,0,0,
56.30143, 16:45:44.886,0,0,0,0,0,0,0,0,0,
56.36003, 16:45:44.943,0,0,0,0,0,0,0,0,0,
56.4107, 16:45:44.993,0,0,0,0,0,0,0,0,0,
56.45517, 16:45:45.038,0,0,0,0,0,0,0,0,0,
56.4943, 16:45:45.076,0,0,0,0,0,0,0,0,0,
56.53228, 16:45:45.116,0,0,0,0,0,0,0,0,0,
56.5912, 16:45:45.175,0,0,0,0,0,0,0,0,0,
56.64387, 16:45:45.229,0,0,0,0,0,0,0,0,0,
56.69022, 16:45:45.272,0,0,0,0,0,0,0,0,0,
56.74269, 16:45:45.331,0,0,0,0,0,0,0,0,0,
56.82099, 16:45:45.415,0,0,0,0,0,0,0,0,0,
56.88659, 16:45:45.470,0,0,0,0,0,0,0,0,0,
56.9491, 16:45:45.533,0,0,0,0,0,0,0,0,0,
56.99074, 16:45:45.572,0,0,0,0,0,0,0,0,0,
57.02614, 16:45:45.609,0,0,0,0,0,0,0,0,0,
57.0836, 16:45:45.668,0,0,0,0,0,0,0,0,0,
57.13527, 16:45:45.717,0,0,0,0,0,0,0,0,0,
57.17482, 16:45:45.759,0,0,0,0,0,0,0,0,0,
57.21232, 16:45:45.796,0,0,0,0,0,0,0,0,0,
57.24892, 16:45:45.831,0,0,0,0,0,0,0,0,0,
57.3015, 16:45:45.883,0,0,0,0,0,0,0,0,0,
57.34047, 16:45:45.923,0,0,0,0,0,0,0,0,0,
57.37869, 16:45:45.958,0,0,0,0,0,0,0,0,0,
57.41389, 16:45:45.995,0,0,0,0,0,0,0,0,0,
57.46421, 16:45:46.048,0,0,0,0,0,0,0,0,0,
57.50955, 16:45:46.092,0,0,0,0,0,0,0,0,0,
57.54618, 16:45:46.128,0,0,0,0,0,0,0,0,0,
57.58405, 16:45:46.166,0,0,0,0,0,0,0,0,0,
57.63285, 16:45:46.216,0,0,0,0,0,0,0,0,0,
57.67363, 16:45:46.255,0,0,0,0,0,0,0,0,0,
57.71264, 16:45:46.294,0,0,0,0,0,0,0,0,0,
57.75114, 16:45:46.333,0,0,0,0,0,0,0,0,0,
57.80657, 16:45:46.390,0,0,0,0,0,0,0,0,0,
57.84935, 16:45:46.431,0,0,0,0,0,0,0,0,0,
57.8845, 16:45:46.466,0,0,0,0,0,0,0,0,0,
57.92873, 16:45:46.510,0,0,0,0,0,0,0,0,0,
57.9877, 16:45:46.571,0,0,0,0,0,0,0,0,0,
58.04015, 16:45:46.627,0,0,0,0,0,0,0,0,0,
58.09785, 16:45:46.681,0,0,0,0,0,0,0,0,0,
58.15894, 16:45:46.741,0,0,0,0,0,0,0,0,0,
58.20163, 16:45:46.784,0,0,0,0,0,0,0,0,0,
58.24002, 16:45:46.822,0,0,0,0,0,0,0,0,0,
58.27513, 16:45:46.857,0,0,0,0,0,0,0,0,0,
58.3226, 16:45:46.906,0,0,0,0,0,0,0,0,0,
58.36502, 16:45:46.948,0,0,0,0,0,0,0,0,0,
58.39907, 16:45:46.980,0,0,0,0,0,0,0,0,0,
58.43414, 16:45:47.015,0,0,0,0,0,0,0,0,0,
58.4818, 16:45:47.065,0,0,0,0,0,0,0,0,0,
58.52205, 16:45:47.103,0,0,0,0,0,0,0,0,0,
58.55711, 16:45:47.138,0,0,0,0,0,0,0,0,0,
58.59388, 16:45:47.176,0,0,0,0,0,0,0,0,0,
58.64117, 16:45:47.225,0,0,0,0,0,0,0,0,0,
58.68163, 16:45:47.265,0,0,0,0,0,0,0,0,0,
58.71978, 16:45:47.300,0,0,0,0,0,0,0,0,0,
58.75595, 16:45:47.337,0,0,0,0,0,0,0,0,0,
58.8043, 16:45:47.387,0,0,0,0,0,0,0,0,0,
58.84784, 16:45:47.429,0,0,0,0,0,0,0,0,0,
58.90137, 16:45:47.484,0,0,0,0,0,0,0,0,0,
58.93692, 16:45:47.518,0,0,0,0,0,0,0,0,0,
58.98984, 16:45:47.573,0,0,0,0,0,0,0,0,0,
59.03644, 16:45:47.619,0,0,0,0,0,0,0,0,0,
59.07679, 16:45:47.659,0,0,0,0,0,0,0,0,0,
59.11311, 16:45:47.695,0,0,0,0,0,0,0,0,0,
59.16156, 16:45:47.745,0,0,0,0,0,0,0,0,0,
59.20979, 16:45:47.793,0,0,0,0,0,0,0,0,0,
59.25527, 16:45:47.840,0,0,0,0,0,0,0,0,0,
59.31062, 16:45:47.894,0,0,0,0,0,0,0,0,0,
59.37172, 16:45:47.954,0,0,0,0,0,0,0,0,0,
59.41064, 16:45:47.994,0,0,0,0,0,0,0,0,0,
59.44672, 16:45:48.028,0,0,0,0,0,0,0,0,0,
59.4887, 16:45:48.069,0,0,0,0,0,0,0,0,0,
59.54264, 16:45:48.125,0,0,0,0,0,0,0,0,0,
59.58396, 16:45:48.166,0,0,0,0,0,0,0,0,0,
59.61822, 16:45:48.200,0,0,0,0,0,0,0,0,0,
59.65931, 16:45:48.243,0,0,0,0,0,0,0,0,0,
59.72606, 16:45:48.311,0,0,0,0,0,0,0,0,0,
59.77554, 16:45:48.359,0,0,0,0,0,0,0,0,0,
59.826, 16:45:48.408,0,0,0,0,0,0,0,0,0,
59.87737, 16:45:48.458,0,0,0,0,0,0,0,0,0,
59.91612, 16:45:48.497,0,0,0,0,0,0,0,0,0,
59.95411, 16:45:48.535,0,0,0,0,0,0,0,0,0,
59.99571, 16:45:48.577,0,0,0,0,0,0,0,0,0,
60.04482, 16:45:48.628,0,0,0,0,0,0,0,0,0,
60.08737, 16:45:48.669,0,0,0,0,0,0,0,0,0,
60.12239, 16:45:48.704,0,0,0,0,0,0,0,0,0,
60.15907, 16:45:48.740,0,0,0,0,0,0,0,0,0,
60.20931, 16:45:48.791,0,0,0,0,0,0,0,0,0,
60.24934, 16:45:48.830,0,0,0,0,0,0,0,0,0,
60.28479, 16:45:48.867,0,0,0,0,0,0,0,0,0,
60.32161, 16:45:48.903,0,0,0,0,0,0,0,0,0,
60.36989, 16:45:48.953,0,0,0,0,0,0,0,0,0,
60.42088, 16:45:49.004,0,0,0,0,0,0,0,0,0,
60.46766, 16:45:49.052,0,0,0,0,0,0,0,0,0,
60.51616, 16:45:49.099,0,0,0,0,0,0,0,0,0,
60.58162, 16:45:49.166,0,0,0,0,0,0,0,0,0,
60.63916, 16:45:49.221,0,0,0,0,0,0,0,0,0,
60.67703, 16:45:49.259,0,0,0,0,0,0,0,0,0,
60.72508, 16:45:49.308,0,0,0,0,0,0,0,0,0,
60.76553, 16:45:49.347,0,0,0,0,0,0,0,0,0,
60.80256, 16:45:49.384,0,0,0,0,0,0,0,0,0,
60.84297, 16:45:49.425,0,0,0,0,0,0,0,0,0,
60.89046, 16:45:49.472,0,0,0,0,0,0,0,0,0,
60.92796, 16:45:49.510,0,0,0,0,0,0,0,0,0,
60.96284, 16:45:49.545,0,0,0,0,0,0,0,0,0,
60.99844, 16:45:49.578,0,0,0,0,0,0,0,0,0,
61.04927, 16:45:49.632,0,0,0,0,0,0,0,0,0,
61.09155, 16:45:49.674,0,0,0,0,0,0,0,0,0,
61.12818, 16:45:49.709,0,0,0,0,0,0,0,0,0,
61.16343, 16:45:49.745,0,0,0,0,0,0,0,0,0,
61.21094, 16:45:49.793,0,0,0,0,0,0,0,0,0,
61.25149, 16:45:49.833,0,0,0,0,0,0,0,0,0,
61.29013, 16:45:49.872,0,0,0,0,0,0,0,0,0,
61.32633, 16:45:49.909,0,0,0,0,0,0,0,0,0,
61.37861, 16:45:49.960,0,0,0,0,0,0,0,0,0,
61.41629, 16:45:49.998,0,0,0,0,0,0,0,0,0,
61.45084, 16:45:50.033,0,0,0,0,0,0,0,0,0,
61.48596, 16:45:50.067,0,0,0,0,0,0,0,0,0,
61.53711, 16:45:50.118,0,0,0,0,0,0,0,0,0,
61.57782, 16:45:50.160,0,0,0,0,0,0,0,0,0,
61.61786, 16:45:50.201,0,0,0,0,0,0,0,0,0,
61.66362, 16:45:50.251,0,0,0,0,0,0,0,0,0,
61.73679, 16:45:50.320,0,0,0,0,0,0,0,0,0,
61.78635, 16:45:50.369,0,0,0,0,0,0,0,0,0,
61.82466, 16:45:50.406,0,0,0,0,0,0,0,0,0,
61.87162, 16:45:50.453,0,0,0,0,0,0,0,0,0,
61.92223, 16:45:50.506,0,0,0,0,0,0,0,0,0,
61.96098, 16:45:50.543,0,0,0,0,0,0,0,0,0,
61.99948, 16:45:50.591,0,0,0,0,0,0,0,0,0,
62.06087, 16:45:50.644,0,0,0,0,0,0,0,0,0,
62.10159, 16:45:50.683,0,0,0,0,0,0,0,0,0,
62.1356, 16:45:50.716,0,0,0,0,0,0,0,0,0,
62.17109, 16:45:50.752,0,0,0,0,0,0,0,0,0,
62.22253, 16:45:50.805,0,0,0,0,0,0,0,0,0,
62.26139, 16:45:50.843,0,0,0,0,0,0,0,0,0,
62.29557, 16:45:50.877,0,0,0,0,0,0,0,0,0,
62.32981, 16:45:50.911,0,0,0,0,0,0,0,0,0,
62.37696, 16:45:50.959,0,0,0,0,0,0,0,0,0,
62.41933, 16:45:51.000,0,0,0,0,0,0,0,0,0,
62.45332, 16:45:51.034,0,0,0,0,0,0,0,0,0,
62.48996, 16:45:51.071,0,0,0,0,0,0,0,0,0,
62.53994, 16:45:51.121,0,0,0,0,0,0,0,0,0,
62.57969, 16:45:51.162,0,0,0,0,0,0,0,0,0,
62.61761, 16:45:51.199,0,0,0,0,0,0,0,0,0,
62.65326, 16:45:51.235,0,0,0,0,0,0,0,0,0,
62.70064, 16:45:51.283,0,0,0,0,0,0,0,0,0,
62.74077, 16:45:51.322,0,0,0,0,0,0,0,0,0,
62.77559, 16:45:51.356,0,0,0,0,0,0,0,0,0,
62.81905, 16:45:51.401,0,0,0,0,0,0,0,0,0,
62.90068, 16:45:51.487,0,0,0,0,0,0,0,0,0,
62.94904, 16:45:51.531,0,0,0,0,0,0,0,0,0,
62.98703, 16:45:51.569,0,0,0,0,0,0,0,0,0,
63.03896, 16:45:51.620,0,0,0,0,0,0,0,0,0,
63.09247, 16:45:51.675,0,0,0,0,0,0,0,0,0,
63.12889, 16:45:51.710,0,0,0,0,0,0,0,0,0,
63.16332, 16:45:51.745,0,0,0,0,0,0,0,0,0,
63.21191, 16:45:51.793,0,0,0,0,0,0,0,0,0,
63.24989, 16:45:51.832,0,0,0,0,0,0,0,0,0,
63.28846, 16:45:51.869,0,0,0,0,0,0,0,0,0,
63.32357, 16:45:51.905,0,0,0,0,0,0,0,0,0,
63.37265, 16:45:51.955,0,0,0,0,0,0,0,0,0,
63.4114, 16:45:51.993,0,0,0,0,0,0,0,0,0,
63.44604, 16:45:52.029,0,0,0,0,0,0,0,0,0,
63.48117, 16:45:52.064,0,0,0,0,0,0,0,0,0,
63.53308, 16:45:52.114,0,0,0,0,0,0,0,0,0,
63.57471, 16:45:52.157,0,0,0,0,0,0,0,0,0,
63.61025, 16:45:52.193,0,0,0,0,0,0,0,0,0,
63.6465, 16:45:52.228,0,0,0,0,0,0,0,0,0,
63.70529, 16:45:52.288,0,0,0,0,0,0,0,0,0,
63.75303, 16:45:52.336,0,0,0,0,0,0,0,0,0,
63.79108, 16:45:52.373,0,0,0,0,0,0,0,0,0,
63.82958, 16:45:52.410,0,0,0,0,0,0,0,0,0,
63.87777, 16:45:52.459,0,0,0,0,0,0,0,0,0,
63.91636, 16:45:52.498,0,0,0,0,0,0,0,0,0,
63.95555, 16:45:52.538,0,0,0,0,0,0,0,0,0,
63.99217, 16:45:52.576,0,0,0,0,0,0,0,0,0,
64.05281, 16:45:52.639,0,0,0,0,0,0,0,0,0,
64.1323, 16:45:52.717,0,0,0,0,0,0,0,0,0,
64.18171, 16:45:52.765,0,0,0,0,0,0,0,0,0,
64.23223, 16:45:52.815,0,0,0,0,0,0,0,0,0,
64.27088, 16:45:52.853,0,0,0,0,0,0,0,0,0,
64.30675, 16:45:52.889,0,0,0,0,0,0,0,0,0,
64.34406, 16:45:52.926,0,0,0,0,0,0,0,0,0,
64.40137, 16:45:52.984,0,0,0,0,0,0,0,0,0,
64.44034, 16:45:53.022,0,0,0,0,0,0,0,0,0,
64.47713, 16:45:53.057,0,0,0,0,0,0,0,0,0,
64.51289, 16:45:53.094,0,0,0,0,0,0,0,0,0,
64.56733, 16:45:53.150,0,0,0,0,0,0,0,0,0,
64.6116, 16:45:53.194,0,0,0,0,0,0,0,0,0,
64.6474, 16:45:53.229,0,0,0,0,0,0,0,0,0,
64.68674, 16:45:53.268,0,0,0,0,0,0,0,0,0,
64.74186, 16:45:53.326,0,0,0,0,0,0,0,0,0,
64.78313, 16:45:53.366,0,0,0,0,0,0,0,0,0,
64.82677, 16:45:53.408,0,0,0,0,0,0,0,0,0,
64.86407, 16:45:53.446,0,0,0,0,0,0,0,0,0,
64.92187, 16:45:53.505,0,0,0,0,0,0,0,0,0,
64.96518, 16:45:53.546,0,0,0,0,0,0,0,0,0,
65.00119, 16:45:53.582,0,0,0,0,0,0,0,0,0,
65.0459, 16:45:53.628,0,0,0,0,0,0,0,0,0,
65.0998, 16:45:53.681,0,0,0,0,0,0,0,0,0,
65.1412, 16:45:53.724,0,0,0,0,0,0,0,0,0,
65.1758, 16:45:53.757,0,0,0,0,0,0,0,0,0,
65.2127, 16:45:53.796,0,0,0,0,0,0,0,0,0,
65.29269, 16:45:53.879,0,0,0,0,0,0,0,0,0,
65.34052, 16:45:53.924,0,0,0,0,0,0,0,0,0,
65.38235, 16:45:53.965,0,0,0,0,0,0,0,0,0,
65.4325, 16:45:54.014,0,0,0,0,0,0,0,0,0,
65.48813, 16:45:54.070,0,0,0,0,0,0,0,0,0,
65.52409, 16:45:54.106,0,0,0,0,0,0,0,0,0,
65.56102, 16:45:54.142,0,0,0,0,0,0,0,0,0,
65.61179, 16:45:54.194,0,0,0,0,0,0,0,0,0,
65.65753, 16:45:54.239,0,0,0,0,0,0,0,0,0,
65.70224, 16:45:54.286,0,0,0,0,0,0,0,0,0,
65.73944, 16:45:54.319,0,0,0,0,0,0,0,0,0,
65.78744, 16:45:54.371,0,0,0,0,0,0,0,0,0,
65.82825, 16:45:54.410,0,0,0,0,0,0,0,0,0,
65.8632, 16:45:54.445,0,0,0,0,0,0,0,0,0,
65.90317, 16:45:54.485,0,0,0,0,0,0,0,0,0,
65.95229, 16:45:54.534,0,0,0,0,0,0,0,0,0,
65.99117, 16:45:54.573,0,0,0,0,0,0,0,0,0,
66.02524, 16:45:54.608,0,0,0,0,0,0,0,0,0,
66.06447, 16:45:54.647,0,0,0,0,0,0,0,0,0,
66.11467, 16:45:54.697,0,0,0,0,0,0,0,0,0,
66.15346, 16:45:54.736,0,0,0,0,0,0,0,0,0,
66.18824, 16:45:54.769,0,0,0,0,0,0,0,0,0,
66.22413, 16:45:54.806,0,0,0,0,0,0,0,0,0,
66.27129, 16:45:54.854,0,0,0,0,0,0,0,0,0,
66.31351, 16:45:54.894,0,0,0,0,0,0,0,0,0,
66.34912, 16:45:54.930,0,0,0,0,0,0,0,0,0,
66.38551, 16:45:54.968,0,0,0,0,0,0,0,0,0,
66.44492, 16:45:55.029,0,0,0,0,0,0,0,0,0,
66.50845, 16:45:55.093,0,0,0,0,0,0,0,0,0,
66.55688, 16:45:55.138,0,0,0,0,0,0,0,0,0,
66.60806, 16:45:55.190,0,0,0,0,0,0,0,0,0,
66.64752, 16:45:55.229,0,0,0,0,0,0,0,0,0,
66.68359, 16:45:55.266,0,0,0,0,0,0,0,0,0,
66.72022, 16:45:55.302,0,0,0,0,0,0,0,0,0,
66.77071, 16:45:55.353,0,0,0,0,0,0,0,0,0,
66.81058, 16:45:55.393,0,0,0,0,0,0,0,0,0,
66.84653, 16:45:55.428,0,0,0,0,0,0,0,0,0,
66.88326, 16:45:55.465,0,0,0,0,0,0,0,0,0,
66.9313, 16:45:55.512,0,0,0,0,0,0,0,0,0,
66.9734, 16:45:55.555,0,0,0,0,0,0,0,0,0,
67.00938, 16:45:55.591,0,0,0,0,0,0,0,0,0,
67.04646, 16:45:55.628,0,0,0,0,0,0,0,0,0,
67.09413, 16:45:55.677,0,0,0,0,0,0,0,0,0,
67.1326, 16:45:55.715,0,0,0,0,0,0,0,0,0,
67.17178, 16:45:55.754,0,0,0,0,0,0,0,0,0,
67.20661, 16:45:55.788,0,0,0,0,0,0,0,0,0,
67.25445, 16:45:55.836,0,0,0,0,0,0,0,0,0,
67.29568, 16:45:55.877,0,0,0,0,0,0,0,0,0,
67.33086, 16:45:55.912,0,0,0,0,0,0,0,0,0,
67.36464, 16:45:55.946,0,0,0,0,0,0,0,0,0,
67.41426, 16:45:55.996,0,0,0,0,0,0,0,0,0,
67.45272, 16:45:56.035,0,0,0,0,0,0,0,0,0,
67.48791, 16:45:56.069,0,0,0,0,0,0,0,0,0,
67.52396, 16:45:56.105,0,0,0,0,0,0,0,0,0,
67.57216, 16:45:56.154,0,0,0,0,0,0,0,0,0,
67.6163, 16:45:56.198,0,0,0,0,0,0,0,0,0,
67.65701, 16:45:56.241,0,0,0,0,0,0,0,0,0,
67.72944, 16:45:56.316,0,0,0,0,0,0,0,0,0,
67.79052, 16:45:56.376,0,0,0,0,0,0,0,0,0,
67.83975, 16:45:56.422,0,0,0,0,0,0,0,0,0,
67.87424, 16:45:56.456,0,0,0,0,0,0,0,0,0,
67.91004, 16:45:56.491,0,0,0,0,0,0,0,0,0,
67.96041, 16:45:56.544,0,0,0,0,0,0,0,0,0,
68.00079, 16:45:56.583,0,0,0,0,0,0,0,0,0,
68.03953, 16:45:56.620,0,0,0,0,0,0,0,0,0,
68.07262, 16:45:56.655,0,0,0,0,0,0,0,0,0,
68.12297, 16:45:56.705,0,0,0,0,0,0,0,0,0,
68.16463, 16:45:56.747,0,0,0,0,0,0,0,0,0,
68.20048, 16:45:56.782,0,0,0,0,0,0,0,0,0,
68.23495, 16:45:56.815,0,0,0,0,0,0,0,0,0,
68.28429, 16:45:56.867,0,0,0,0,0,0,0,0,0,
68.32345, 16:45:56.905,0,0,0,0,0,0,0,0,0,
68.35857, 16:45:56.938,0,0,0,0,0,0,0,0,0,
68.39239, 16:45:56.974,0,0,0,0,0,0,0,0,0,
68.43914, 16:45:57.020,0,0,0,0,0,0,0,0,0,
68.48426, 16:45:57.066,0,0,0,0,0,0,0,0,0,
68.52013, 16:45:57.102,0,0,0,0,0,0,0,0,0,
68.55453, 16:45:57.135,0,0,0,0,0,0,0,0,0,
68.60207, 16:45:57.186,0,0,0,0,0,0,0,0,0,
68.64316, 16:45:57.225,0,0,0,0,0,0,0,0,0,
68.68049, 16:45:57.262,0,0,0,0,0,0,0,0,0,
68.71828, 16:45:57.298,0,0,0,0,0,0,0,0,0,
68.76563, 16:45:57.349,0,0,0,0,0,0,0,0,0,
68.80856, 16:45:57.393,0,0,0,0,0,0,0,0,0,
68.85075, 16:45:57.433,0,0,0,0,0,0,0,0,0,
68.90081, 16:45:57.486,0,0,0,0,0,0,0,0,0,
68.96672, 16:45:57.550,0,0,0,0,0,0,0,0,0,
69.01225, 16:45:57.594,0,0,0,0,0,0,0,0,0,
69.05096, 16:45:57.633,0,0,0,0,0,0,0,0,0,
69.10062, 16:45:57.683,0,0,0,0,0,0,0,0,0,
69.1434, 16:45:57.725,0,0,0,0,0,0,0,0,0,
69.17963, 16:45:57.760,0,0,0,0,0,0,0,0,0,
69.21665, 16:45:57.798,0,0,0,0,0,0,0,0,0,
69.27419, 16:45:57.857,0,0,0,0,0,0,0,0,0,
69.31666, 16:45:57.899,0,0,0,0,0,0,0,0,0,
69.3538, 16:45:57.937,0,0,0,0,0,0,0,0,0,
69.3894, 16:45:57.970,0,0,0,0,0,0,0,0,0,
69.44049, 16:45:58.022,0,0,0,0,0,0,0,0,0,
69.48123, 16:45:58.062,0,0,0,0,0,0,0,0,0,
69.51627, 16:45:58.096,0,0,0,0,0,0,0,0,0,
69.55186, 16:45:58.133,0,0,0,0,0,0,0,0,0,
69.60298, 16:45:58.186,0,0,0,0,0,0,0,0,0,
69.64256, 16:45:58.224,0,0,0,0,0,0,0,0,0,
69.67719, 16:45:58.259,0,0,0,0,0,0,0,0,0,
69.71436, 16:45:58.297,0,0,0,0,0,0,0,0,0,
69.76443, 16:45:58.348,0,0,0,0,0,0,0,0,0,
69.81145, 16:45:58.393,0,0,0,0,0,0,0,0,0,
69.84821, 16:45:58.429,0,0,0,0,0,0,0,0,0,
69.88295, 16:45:58.465,0,0,0,0,0,0,0,0,0,
69.93205, 16:45:58.514,0,0,0,0,0,0,0,0,0,
69.97259, 16:45:58.555,0,0,0,0,0,0,0,0,0,
70.01267, 16:45:58.597,0,0,0,0,0,0,0,0,0,
70.06521, 16:45:58.650,0,0,0,0,0,0,0,0,0,
70.1528, 16:45:58.737,0,0,0,0,0,0,0,0,0,
70.20998, 16:45:58.795,0,0,0,0,0,0,0,0,0,
70.2578, 16:45:58.839,0,0,0,0,0,0,0,0,0,
70.3083, 16:45:58.891,0,0,0,0,0,0,0,0,0,
70.35167, 16:45:58.934,0,0,0,0,0,0,0,0,0,
70.38988, 16:45:58.972,0,0,0,0,0,0,0,0,0,
70.42925, 16:45:59.011,0,0,0,0,0,0,0,0,0,
70.48445, 16:45:59.068,0,0,0,0,0,0,0,0,0,
70.52679, 16:45:59.109,0,0,0,0,0,0,0,0,0,
70.5659, 16:45:59.148,0,0,0,0,0,0,0,0,0,
70.60562, 16:45:59.187,0,0,0,0,0,0,0,0,0,
70.659, 16:45:59.241,0,0,0,0,0,0,0,0,0,
70.70208, 16:45:59.284,0,0,0,0,0,0,0,0,0,
70.74394, 16:45:59.325,0,0,0,0,0,0,0,0,0,
70.78255, 16:45:59.365,0,0,0,0,0,0,0,0,0,
70.8361, 16:45:59.418,0,0,0,0,0,0,0,0,0,
70.88193, 16:45:59.466,0,0,0,0,0,0,0,0,0,
70.92626, 16:45:59.507,0,0,0,0,0,0,0,0,0,
70.96443, 16:45:59.546,0,0,0,0,0,0,0,0,0,
71.01682, 16:45:59.599,0,0,0,0,0,0,0,0,0,
71.05976, 16:45:59.641,0,0,0,0,0,0,0,0,0,
71.09689, 16:45:59.678,0,0,0,0,0,0,0,0,0,
71.14036, 16:45:59.724,0,0,0,0,0,0,0,0,0,
71.19324, 16:45:59.774,0,0,0,0,0,0,0,0,0,
71.23836, 16:45:59.821,0,0,0,0,0,0,0,0,0,
71.28234, 16:45:59.866,0,0,0,0,0,0,0,0,0,
71.34135, 16:45:59.927,0,0,0,0,0,0,0,0,0,
71.4101, 16:45:59.994,0,0,0,0,0,0,0,0,0,
71.46367, 16:46:00.047,0,0,0,0,0,0,0,0,0,
71.50504, 16:46:00.087,0,0,0,0,0,0,0,0,0,
71.55599, 16:46:00.138,0,0,0,0,0,0,0,0,0,
71.61076, 16:46:00.194,0,0,0,0,0,0,0,0,0,
71.64846, 16:46:00.230,0,0,0,0,0,0,0,0,0,
71.69181, 16:46:00.274,0,0,0,0,0,0,0,0,0,
71.75304, 16:46:00.335,0,0,0,0,0,0,0,0,0,
71.79692, 16:46:00.378,0,0,0,0,0,0,0,0,0,
71.83987, 16:46:00.422,0,0,0,0,0,0,0,0,0,
71.87968, 16:46:00.461,0,0,0,0,0,0,0,0,0,
71.93121, 16:46:00.514,0,0,0,0,0,0,0,0,0,
71.97366, 16:46:00.556,0,0,0,0,0,0,0,0,0,
72.01218, 16:46:00.594,0,0,0,0,0,0,0,0,0,
72.05246, 16:46:00.634,0,0,0,0,0,0,0,0,0,
72.10306, 16:46:00.687,0,0,0,0,0,0,0,0,0,
72.14614, 16:46:00.729,0,0,0,0,0,0,0,0,0,
72.18425, 16:46:00.767,0,0,0,0,0,0,0,0,0,
72.22356, 16:46:00.804,0,0,0,0,0,0,0,0,0,
72.27798, 16:46:00.860,0,0,0,0,0,0,0,0,0,
72.31958, 16:46:00.901,0,0,0,0,0,0,0,0,0,
72.35703, 16:46:00.938,0,0,0,0,0,0,0,0,0,
72.39561, 16:46:00.977,0,0,0,0,0,0,0,0,0,
72.44995, 16:46:01.034,0,0,0,0,0,0,0,0,0,
72.50491, 16:46:01.090,0,0,0,0,0,0,0,0,0,
72.57098, 16:46:01.155,0,0,0,0,0,0,0,0,0,
72.63795, 16:46:01.221,0,0,0,0,0,0,0,0,0,
72.68332, 16:46:01.266,0,0,0,0,0,0,0,0,0,
72.74644, 16:46:01.329,0,0,0,0,0,0,0,0,0,
72.80544, 16:46:01.389,0,0,0,0,0,0,0,0,0,
72.84969, 16:46:01.432,0,0,0,0,0,0,0,0,0,
72.88831, 16:46:01.470,0,0,0,0,0,0,0,0,0,
72.92992, 16:46:01.511,0,0,0,0,0,0,0,0,0,
72.98232, 16:46:01.565,0,0,0,0,0,0,0,0,0,
73.02448, 16:46:01.606,0,0,0,0,0,0,0,0,0,
73.06377, 16:46:01.646,0,0,0,0,0,0,0,0,0,
73.10238, 16:46:01.684,0,0,0,0,0,0,0,0,0,
73.1545, 16:46:01.736,0,0,0,0,0,0,0,0,0,
73.19645, 16:46:01.779,0,0,0,0,0,0,0,0,0,
73.23696, 16:46:01.819,0,0,0,0,0,0,0,0,0,
73.27579, 16:46:01.857,0,0,0,0,0,0,0,0,0,
73.32717, 16:46:01.910,0,0,0,0,0,0,0,0,0,
73.37409, 16:46:01.955,0,0,0,0,0,0,0,0,0,
73.41154, 16:46:01.993,0,0,0,0,0,0,0,0,0,
73.45053, 16:46:02.032,0,0,0,0,0,0,0,0,0,
73.50926, 16:46:02.093,0,0,0,0,0,0,0,0,0,
73.55183, 16:46:02.134,0,0,0,0,0,0,0,0,0,
73.59896, 16:46:02.181,0,0,0,0,0,0,0,0,0,
73.64802, 16:46:02.230,0,0,0,0,0,0,0,0,0,
73.71239, 16:46:02.295,0,0,0,0,0,0,0,0,0,
73.77237, 16:46:02.360,0,0,0,0,0,0,0,0,0,
73.84051, 16:46:02.425,0,0,0,0,0,0,0,0,0,
73.90717, 16:46:02.489,0,0,0,0,0,0,0,0,0,
73.94911, 16:46:02.531,0,0,0,0,0,0,0,0,0,
73.9921, 16:46:02.574,0,0,0,0,0,0,0,0,0,
74.05674, 16:46:02.639,0,0,0,0,0,0,0,0,0,
74.09953, 16:46:02.681,0,0,0,0,0,0,0,0,0,
74.14273, 16:46:02.726,0,0,0,0,0,0,0,0,0,
74.1965, 16:46:02.778,0,0,0,0,0,0,0,0,0,
74.25208, 16:46:02.835,0,0,0,0,0,0,0,0,0,
74.29029, 16:46:02.872,0,0,0,0,0,0,0,0,0,
74.33604, 16:46:02.918,0,0,0,0,0,0,0,0,0,
74.39079, 16:46:02.973,0,0,0,0,0,0,0,0,0,
74.4335, 16:46:03.015,0,0,0,0,0,0,0,0,0,
74.47471, 16:46:03.056,0,0,0,0,0,0,0,0,0,
74.51579, 16:46:03.098,0,0,0,0,0,0,0,0,0,
74.56901, 16:46:03.151,0,0,0,0,0,0,0,0,0,
74.61176, 16:46:03.193,0,0,0,0,0,0,0,0,0,
74.65166, 16:46:03.233,0,0,0,0,0,0,0,0,0,
74.69481, 16:46:03.277,0,0,0,0,0,0,0,0,0,
74.74516, 16:46:03.329,0,0,0,0,0,0,0,0,0,
74.79011, 16:46:03.373,0,0,0,0,0,0,0,0,0,
74.83171, 16:46:03.414,0,0,0,0,0,0,0,0,0,
74.87229, 16:46:03.454,0,0,0,0,0,0,0,0,0,
74.93501, 16:46:03.518,0,0,0,0,0,0,0,0,0,
75.00309, 16:46:03.588,0,0,0,0,0,0,0,0,0,
75.05188, 16:46:03.633,0,0,0,0,0,0,0,0,0,
75.10497, 16:46:03.688,0,0,0,0,0,0,0,0,0,
75.15219, 16:46:03.735,0,0,0,0,0,0,0,0,0,
75.19117, 16:46:03.773,0,0,0,0,0,0,0,0,0,
75.23618, 16:46:03.818,0,0,0,0,0,0,0,0,0,
75.28996, 16:46:03.872,0,0,0,0,0,0,0,0,0,
75.33348, 16:46:03.915,0,0,0,0,0,0,0,0,0,
75.37456, 16:46:03.956,0,0,0,0,0,0,0,0,0,
75.41212, 16:46:03.994,0,0,0,0,0,0,0,0,0,
75.46223, 16:46:04.044,0,0,0,0,0,0,0,0,0,
75.50688, 16:46:04.089,0,0,0,0,0,0,0,0,0,
75.5452, 16:46:04.127,0,0,0,0,0,0,0,0,0,
75.58761, 16:46:04.169,0,0,0,0,0,0,0,0,0,
75.64342, 16:46:04.227,0,0,0,0,0,0,0,0,0,
75.69189, 16:46:04.275,0,0,0,0,0,0,0,0,0,
75.73395, 16:46:04.317,0,0,0,0,0,0,0,0,0,
