Elapsed_Time, System_Time, Euler_Roll, Euler_Pitch, Euler_Yaw, Gyro_Roll, Gyro_Pitch, Gyro_Yaw, Accel_x, Accel_y, Accel_z
0.02, 18:31:37.872,0,0,0,0,0,0,0,0,0,
0.04, 18:31:38.109,0,0,0,0,0,0,0,0,0,
0.3733333, 18:31:39.489,0,0,0,0,0,0,0,0,0,
0.6349288, 18:31:39.751,0,0,0,0,0,0,0,0,0,
0.7074631, 18:31:39.811,0,0,0,0,0,0,0,0,0,
0.7516804, 18:31:39.852,0,0,0,0,0,0,0,0,0,
0.815159, 18:31:39.916,0,0,0,0,0,0,0,0,0,
0.855153, 18:31:39.957,0,0,0,0,0,0,0,0,0,
0.8948725, 18:31:39.995,0,0,0,0,0,0,0,0,0,
0.9315765, 18:31:40.032,0,0,0,0,0,0,0,0,0,
0.963403, 18:31:40.063,0,0,0,0,0,0,0,0,0,
1.003129, 18:31:40.103,0,0,0,0,0,0,0,0,0,
1.034741, 18:31:40.134,0,0,0,0,0,0,0,0,0,
1.069867, 18:31:40.170,0,0,0,0,0,0,0,0,0,
1.104561, 18:31:40.205,0,0,0,0,0,0,0,0,0,
1.143786, 18:31:40.244,0,0,0,0,0,0,0,0,0,
1.175477, 18:31:40.275,0,0,0,0,0,0,0,0,0,
1.214366, 18:31:40.315,0,0,0,0,0,0,0,0,0,
1.247286, 18:31:40.347,0,0,0,0,0,0,0,0,0,
1.278285, 18:31:40.377,0,0,0,0,0,0,0,0,0,
1.345834, 18:31:40.452,0,0,0,0,0,0,0,0,0,
1.402066, 18:31:40.507,0,0,0,0,0,0,0,0,0,
1.461683, 18:31:40.567,0,0,0,0,0,0,0,0,0,
1.54685, 18:31:40.649,0,0,0,0,0,0,0,0,0,
1.587569, 18:31:40.688,0,0,0,0,0,0,0,0,0,
1.665255, 18:31:40.768,0,0,0,0,0,0,0,0,0,
1.776031, 18:31:40.880,0,0,0,0,0,0,0,0,0,
1.816312, 18:31:40.917,0,0,0,0,0,0,0,0,0,
1.85322, 18:31:41.070,0,0,0,0,0,0,0,0,0,
2.005699, 18:31:41.113,0,0,0,0,0,0,0,0,0,
2.110226, 18:31:41.213,0,0,0,0,0,0,0,0,0,
2.220575, 18:31:41.328,0,0,0,0,0,0,0,0,0,
2.274097, 18:31:41.376,0,0,0,0,0,0,0,0,0,
2.328401, 18:31:41.432,0,0,0,0,0,0,0,0,0,
2.36834, 18:31:41.471,0,0,0,0,0,0,0,0,0,
2.405113, 18:31:41.505,0,0,0,0,0,0,0,0,0,
2.439128, 18:31:41.538,0,0,0,0,0,0,0,0,0,
2.476643, 18:31:41.580,0,0,0,0,0,0,0,0,0,
2.515695, 18:31:41.615,0,0,0,0,0,0,0,0,0,
2.553314, 18:31:41.658,0,0,0,0,0,0,0,0,0,
2.616298, 18:31:41.722,0,0,0,0,0,0,0,0,0,
2.680912, 18:31:41.785,0,0,0,0,0,0,0,0,0,
2.733677, 18:31:41.836,0,0,0,0,0,0,0,0,0,
2.777075, 18:31:41.877,0,0,0,0,0,0,0,0,0,
2.815242, 18:31:41.915,0,0,0,0,0,0,0,0,0,
2.861711, 18:31:41.966,0,0,0,0,0,0,0,0,0,
2.903665, 18:31:42.004,0,0,0,0,0,0,0,0,0,
2.945195, 18:31:42.045,0,0,0,0,0,0,0,0,0,
2.985568, 18:31:42.086,0,0,0,0,0,0,0,0,0,
3.022339, 18:31:42.123,0,0,0,0,0,0,0,0,0,
3.064468, 18:31:42.165,0,0,0,0,0,0,0,0,0,
3.099947, 18:31:42.200,0,0,0,0,0,0,0,0,0,
3.134505, 18:31:42.235,0,0,0,0,0,0,0,0,0,
3.183989, 18:31:42.287,0,0,0,0,0,0,0,0,0,
3.221941, 18:31:42.323,0,0,0,0,0,0,0,0,0,
3.258079, 18:31:42.360,0,0,0,0,0,0,0,0,0,
3.297891, 18:31:42.398,0,0,0,0,0,0,0,0,0,
3.334827, 18:31:42.435,0,0,0,0,0,0,0,0,0,
3.373416, 18:31:42.474,0,0,0,0,0,0,0,0,0,
3.410951, 18:31:42.512,0,0,0,0,0,0,0,0,0,
3.448854, 18:31:42.550,0,0,0,0,0,0,0,0,0,
3.490112, 18:31:42.591,0,0,0,0,0,0,0,0,0,
3.525551, 18:31:42.627,0,0,0,0,0,0,0,0,0,
3.563274, 18:31:42.665,0,0,0,0,0,0,0,0,0,
3.60651, 18:31:42.707,0,0,0,0,0,0,0,0,0,
3.643503, 18:31:42.744,0,0,0,0,0,0,0,0,0,
3.684264, 18:31:42.787,0,0,0,0,0,0,0,0,0,
3.723068, 18:31:42.827,0,0,0,0,0,0,0,0,0,
3.762307, 18:31:42.864,0,0,0,0,0,0,0,0,0,
3.808182, 18:31:42.911,0,0,0,0,0,0,0,0,0,
3.920264, 18:31:43.029,0,0,0,0,0,0,0,0,0,
3.973514, 18:31:43.076,0,0,0,0,0,0,0,0,0,
4.016461, 18:31:43.117,0,0,0,0,0,0,0,0,0,
4.059984, 18:31:43.162,0,0,0,0,0,0,0,0,0,
4.100526, 18:31:43.205,0,0,0,0,0,0,0,0,0,
4.16897, 18:31:43.270,0,0,0,0,0,0,0,0,0,
4.209343, 18:31:43.310,0,0,0,0,0,0,0,0,0,
4.248623, 18:31:43.350,0,0,0,0,0,0,0,0,0,
4.289597, 18:31:43.390,0,0,0,0,0,0,0,0,0,
4.328784, 18:31:43.430,0,0,0,0,0,0,0,0,0,
4.365942, 18:31:43.468,0,0,0,0,0,0,0,0,0,
4.405508, 18:31:43.507,0,0,0,0,0,0,0,0,0,
4.444915, 18:31:43.547,0,0,0,0,0,0,0,0,0,
4.4842, 18:31:43.585,0,0,0,0,0,0,0,0,0,
4.520861, 18:31:43.622,0,0,0,0,0,0,0,0,0,
4.55876, 18:31:43.663,0,0,0,0,0,0,0,0,0,
4.602145, 18:31:43.704,0,0,0,0,0,0,0,0,0,
4.63981, 18:31:43.738,0,0,0,0,0,0,0,0,0,
4.692958, 18:31:43.794,0,0,0,0,0,0,0,0,0,
4.735831, 18:31:43.836,0,0,0,0,0,0,0,0,0,
4.774404, 18:31:43.875,0,0,0,0,0,0,0,0,0,
4.813376, 18:31:43.914,0,0,0,0,0,0,0,0,0,
4.85124, 18:31:43.953,0,0,0,0,0,0,0,0,0,
4.891197, 18:31:43.994,0,0,0,0,0,0,0,0,0,
4.931768, 18:31:44.033,0,0,0,0,0,0,0,0,0,
4.971148, 18:31:44.073,0,0,0,0,0,0,0,0,0,
5.013332, 18:31:44.115,0,0,0,0,0,0,0,0,0,
5.055663, 18:31:44.157,0,0,0,0,0,0,0,0,0,
5.112682, 18:31:44.217,0,0,0,0,0,0,0,0,0,
5.167692, 18:31:44.270,0,0,0,0,0,0,0,0,0,
5.21328, 18:31:44.315,0,0,0,0,0,0,0,0,0,
5.26048, 18:31:44.364,0,0,0,0,0,0,0,0,0,
5.302973, 18:31:44.402,0,0,0,0,0,0,0,0,0,
5.34003, 18:31:44.440,0,0,0,0,0,0,0,0,0,
5.38146, 18:31:44.483,0,0,0,0,0,0,0,0,0,
5.423193, 18:31:44.525,0,0,0,0,0,0,0,0,0,
5.46132, 18:31:44.563,0,0,0,0,0,0,0,0,0,
5.50516, 18:31:44.606,0,0,0,0,0,0,0,0,0,
5.545168, 18:31:44.645,0,0,0,0,0,0,0,0,0,
5.585727, 18:31:44.694,0,0,0,0,0,0,0,0,0,
5.631241, 18:31:44.732,0,0,0,0,0,0,0,0,0,
5.669126, 18:31:44.770,0,0,0,0,0,0,0,0,0,
5.711515, 18:31:44.813,0,0,0,0,0,0,0,0,0,
5.755299, 18:31:44.856,0,0,0,0,0,0,0,0,0,
5.796161, 18:31:44.900,0,0,0,0,0,0,0,0,0,
5.841509, 18:31:44.943,0,0,0,0,0,0,0,0,0,
5.883206, 18:31:44.983,0,0,0,0,0,0,0,0,0,
5.922433, 18:31:45.023,0,0,0,0,0,0,0,0,0,
5.960578, 18:31:45.063,0,0,0,0,0,0,0,0,0,
6.001059, 18:31:45.104,0,0,0,0,0,0,0,0,0,
6.043211, 18:31:45.146,0,0,0,0,0,0,0,0,0,
6.083792, 18:31:45.187,0,0,0,0,0,0,0,0,0,
6.128766, 18:31:45.231,0,0,0,0,0,0,0,0,0,
6.169925, 18:31:45.270,0,0,0,0,0,0,0,0,0,
6.211872, 18:31:45.314,0,0,0,0,0,0,0,0,0,
6.258706, 18:31:45.360,0,0,0,0,0,0,0,0,0,
6.302127, 18:31:45.405,0,0,0,0,0,0,0,0,0,
6.354634, 18:31:45.460,0,0,0,0,0,0,0,0,0,
6.41423, 18:31:45.517,0,0,0,0,0,0,0,0,0,
6.460414, 18:31:45.563,0,0,0,0,0,0,0,0,0,
6.505287, 18:31:45.605,0,0,0,0,0,0,0,0,0,
6.543252, 18:31:45.644,0,0,0,0,0,0,0,0,0,
6.583704, 18:31:45.684,0,0,0,0,0,0,0,0,0,
6.62558, 18:31:45.726,0,0,0,0,0,0,0,0,0,
6.665612, 18:31:45.768,0,0,0,0,0,0,0,0,0,
6.708364, 18:31:45.809,0,0,0,0,0,0,0,0,0,
6.749151, 18:31:45.850,0,0,0,0,0,0,0,0,0,
6.792638, 18:31:45.896,0,0,0,0,0,0,0,0,0,
6.835152, 18:31:45.937,0,0,0,0,0,0,0,0,0,
6.875679, 18:31:45.978,0,0,0,0,0,0,0,0,0,
6.912849, 18:31:46.014,0,0,0,0,0,0,0,0,0,
6.952895, 18:31:46.053,0,0,0,0,0,0,0,0,0,
6.987379, 18:31:46.089,0,0,0,0,0,0,0,0,0,
7.02509, 18:31:46.126,0,0,0,0,0,0,0,0,0,
7.065194, 18:31:46.165,0,0,0,0,0,0,0,0,0,
7.101672, 18:31:46.203,0,0,0,0,0,0,0,0,0,
7.144162, 18:31:46.244,0,0,0,0,0,0,0,0,0,
7.181784, 18:31:46.282,0,0,0,0,0,0,0,0,0,
7.219173, 18:31:46.319,0,0,0,0,0,0,0,0,0,
7.261148, 18:31:46.363,0,0,0,0,0,0,0,0,0,
7.299151, 18:31:46.398,0,0,0,0,0,0,0,0,0,
7.342408, 18:31:46.445,0,0,0,0,0,0,0,0,0,
7.380841, 18:31:46.481,0,0,0,0,0,0,0,0,0,
7.41503, 18:31:46.517,0,0,0,0,0,0,0,0,0,
7.456821, 18:31:46.558,0,0,0,0,0,0,0,0,0,
7.493943, 18:31:46.597,0,0,0,0,0,0,0,0,0,
7.540546, 18:31:46.644,0,0,0,0,0,0,0,0,0,
7.617749, 18:31:46.720,0,0,0,0,0,0,0,0,0,
7.65911, 18:31:46.760,0,0,0,0,0,0,0,0,0,
7.700522, 18:31:46.802,0,0,0,0,0,0,0,0,0,
7.745131, 18:31:46.845,0,0,0,0,0,0,0,0,0,
7.784624, 18:31:46.886,0,0,0,0,0,0,0,0,0,
7.827861, 18:31:46.928,0,0,0,0,0,0,0,0,0,
7.866975, 18:31:46.967,0,0,0,0,0,0,0,0,0,
7.901299, 18:31:47.004,0,0,0,0,0,0,0,0,0,
7.950889, 18:31:47.052,0,0,0,0,0,0,0,0,0,
7.990074, 18:31:47.090,0,0,0,0,0,0,0,0,0,
8.024958, 18:31:47.126,0,0,0,0,0,0,0,0,0,
8.073717, 18:31:47.174,0,0,0,0,0,0,0,0,0,
8.110868, 18:31:47.212,0,0,0,0,0,0,0,0,0,
8.147001, 18:31:47.247,0,0,0,0,0,0,0,0,0,
8.187831, 18:31:47.288,0,0,0,0,0,0,0,0,0,
8.227196, 18:31:47.328,0,0,0,0,0,0,0,0,0,
8.269958, 18:31:47.370,0,0,0,0,0,0,0,0,0,
8.317522, 18:31:47.418,0,0,0,0,0,0,0,0,0,
8.363637, 18:31:47.466,0,0,0,0,0,0,0,0,0,
8.406865, 18:31:47.508,0,0,0,0,0,0,0,0,0,
8.450901, 18:31:47.553,0,0,0,0,0,0,0,0,0,
8.497672, 18:31:47.599,0,0,0,0,0,0,0,0,0,
8.537506, 18:31:47.637,0,0,0,0,0,0,0,0,0,
8.575664, 18:31:47.676,0,0,0,0,0,0,0,0,0,
8.61802, 18:31:47.719,0,0,0,0,0,0,0,0,0,
8.658046, 18:31:47.759,0,0,0,0,0,0,0,0,0,
8.69826, 18:31:47.801,0,0,0,0,0,0,0,0,0,
8.755931, 18:31:47.861,0,0,0,0,0,0,0,0,0,
8.858698, 18:31:47.966,0,0,0,0,0,0,0,0,0,
8.917532, 18:31:48.019,0,0,0,0,0,0,0,0,0,
8.961316, 18:31:48.066,0,0,0,0,0,0,0,0,0,
9.003002, 18:31:48.104,0,0,0,0,0,0,0,0,0,
9.039745, 18:31:48.140,0,0,0,0,0,0,0,0,0,
9.0756, 18:31:48.178,0,0,0,0,0,0,0,0,0,
9.118134, 18:31:48.219,0,0,0,0,0,0,0,0,0,
9.156961, 18:31:48.258,0,0,0,0,0,0,0,0,0,
9.194561, 18:31:48.297,0,0,0,0,0,0,0,0,0,
9.234562, 18:31:48.335,0,0,0,0,0,0,0,0,0,
9.27089, 18:31:48.372,0,0,0,0,0,0,0,0,0,
9.309587, 18:31:48.410,0,0,0,0,0,0,0,0,0,
9.366039, 18:31:48.467,0,0,0,0,0,0,0,0,0,
9.422466, 18:31:48.523,0,0,0,0,0,0,0,0,0,
9.46142, 18:31:48.562,0,0,0,0,0,0,0,0,0,
9.498615, 18:31:48.598,0,0,0,0,0,0,0,0,0,
9.540183, 18:31:48.644,0,0,0,0,0,0,0,0,0,
9.584593, 18:31:48.687,0,0,0,0,0,0,0,0,0,
9.630937, 18:31:48.732,0,0,0,0,0,0,0,0,0,
9.666885, 18:31:48.767,0,0,0,0,0,0,0,0,0,
9.707697, 18:31:48.808,0,0,0,0,0,0,0,0,0,
9.760166, 18:31:48.863,0,0,0,0,0,0,0,0,0,
9.803016, 18:31:48.904,0,0,0,0,0,0,0,0,0,
9.84374, 18:31:48.946,0,0,0,0,0,0,0,0,0,
9.883298, 18:31:48.984,0,0,0,0,0,0,0,0,0,
9.919271, 18:31:49.018,0,0,0,0,0,0,0,0,0,
9.96014, 18:31:49.066,0,0,0,0,0,0,0,0,0,
10.01359, 18:31:49.119,0,0,0,0,0,0,0,0,0,
10.09806, 18:31:49.201,0,0,0,0,0,0,0,0,0,
10.14394, 18:31:49.249,0,0,0,0,0,0,0,0,0,
10.1864, 18:31:49.289,0,0,0,0,0,0,0,0,0,
10.23151, 18:31:49.332,0,0,0,0,0,0,0,0,0,
10.26865, 18:31:49.368,0,0,0,0,0,0,0,0,0,
10.30667, 18:31:49.406,0,0,0,0,0,0,0,0,0,
10.34656, 18:31:49.446,0,0,0,0,0,0,0,0,0,
10.38536, 18:31:49.486,0,0,0,0,0,0,0,0,0,
10.42692, 18:31:49.528,0,0,0,0,0,0,0,0,0,
10.46927, 18:31:49.570,0,0,0,0,0,0,0,0,0,
10.50422, 18:31:49.607,0,0,0,0,0,0,0,0,0,
10.54775, 18:31:49.649,0,0,0,0,0,0,0,0,0,
10.58419, 18:31:49.685,0,0,0,0,0,0,0,0,0,
10.62054, 18:31:49.728,0,0,0,0,0,0,0,0,0,
10.67038, 18:31:49.772,0,0,0,0,0,0,0,0,0,
10.70984, 18:31:49.811,0,0,0,0,0,0,0,0,0,
10.75177, 18:31:49.851,0,0,0,0,0,0,0,0,0,
10.79346, 18:31:49.894,0,0,0,0,0,0,0,0,0,
10.83174, 18:31:49.933,0,0,0,0,0,0,0,0,0,
10.8766, 18:31:49.979,0,0,0,0,0,0,0,0,0,
10.92334, 18:31:50.025,0,0,0,0,0,0,0,0,0,
10.95911, 18:31:50.060,0,0,0,0,0,0,0,0,0,
10.99554, 18:31:50.100,0,0,0,0,0,0,0,0,0,
11.03627, 18:31:50.137,0,0,0,0,0,0,0,0,0,
11.0712, 18:31:50.171,0,0,0,0,0,0,0,0,0,
11.10582, 18:31:50.207,0,0,0,0,0,0,0,0,0,
11.15219, 18:31:50.254,0,0,0,0,0,0,0,0,0,
11.19984, 18:31:50.303,0,0,0,0,0,0,0,0,0,
11.25773, 18:31:50.364,0,0,0,0,0,0,0,0,0,
11.32093, 18:31:50.425,0,0,0,0,0,0,0,0,0,
11.37478, 18:31:50.477,0,0,0,0,0,0,0,0,0,
11.4177, 18:31:50.518,0,0,0,0,0,0,0,0,0,
11.45644, 18:31:50.557,0,0,0,0,0,0,0,0,0,
11.4992, 18:31:50.601,0,0,0,0,0,0,0,0,0,
11.53888, 18:31:50.639,0,0,0,0,0,0,0,0,0,
11.58197, 18:31:50.683,0,0,0,0,0,0,0,0,0,
11.61944, 18:31:50.720,0,0,0,0,0,0,0,0,0,
11.65869, 18:31:50.760,0,0,0,0,0,0,0,0,0,
11.69906, 18:31:50.799,0,0,0,0,0,0,0,0,0,
11.73578, 18:31:50.836,0,0,0,0,0,0,0,0,0,
11.77796, 18:31:50.879,0,0,0,0,0,0,0,0,0,
11.81768, 18:31:50.918,0,0,0,0,0,0,0,0,0,
11.85685, 18:31:50.960,0,0,0,0,0,0,0,0,0,
11.90425, 18:31:51.007,0,0,0,0,0,0,0,0,0,
11.9472, 18:31:51.048,0,0,0,0,0,0,0,0,0,
11.98695, 18:31:51.086,0,0,0,0,0,0,0,0,0,
12.03406, 18:31:51.134,0,0,0,0,0,0,0,0,0,
12.07116, 18:31:51.171,0,0,0,0,0,0,0,0,0,
12.10829, 18:31:51.210,0,0,0,0,0,0,0,0,0,
12.15249, 18:31:51.254,0,0,0,0,0,0,0,0,0,
12.19031, 18:31:51.292,0,0,0,0,0,0,0,0,0,
12.23371, 18:31:51.336,0,0,0,0,0,0,0,0,0,
12.27261, 18:31:51.374,0,0,0,0,0,0,0,0,0,
12.31054, 18:31:51.412,0,0,0,0,0,0,0,0,0,
12.35212, 18:31:51.453,0,0,0,0,0,0,0,0,0,
12.39104, 18:31:51.492,0,0,0,0,0,0,0,0,0,
12.44191, 18:31:51.551,0,0,0,0,0,0,0,0,0,
12.4959, 18:31:51.599,0,0,0,0,0,0,0,0,0,
12.5792, 18:31:51.682,0,0,0,0,0,0,0,0,0,
12.62551, 18:31:51.728,0,0,0,0,0,0,0,0,0,
12.67223, 18:31:51.773,0,0,0,0,0,0,0,0,0,
12.71315, 18:31:51.814,0,0,0,0,0,0,0,0,0,
12.76254, 18:31:51.868,0,0,0,0,0,0,0,0,0,
12.80433, 18:31:51.907,0,0,0,0,0,0,0,0,0,
12.84245, 18:31:51.943,0,0,0,0,0,0,0,0,0,
12.88724, 18:31:51.989,0,0,0,0,0,0,0,0,0,
12.9258, 18:31:52.026,0,0,0,0,0,0,0,0,0,
12.96295, 18:31:52.064,0,0,0,0,0,0,0,0,0,
13.0005, 18:31:52.103,0,0,0,0,0,0,0,0,0,
13.03839, 18:31:52.138,0,0,0,0,0,0,0,0,0,
13.07578, 18:31:52.178,0,0,0,0,0,0,0,0,0,
13.11803, 18:31:52.218,0,0,0,0,0,0,0,0,0,
13.15249, 18:31:52.254,0,0,0,0,0,0,0,0,0,
13.19296, 18:31:52.296,0,0,0,0,0,0,0,0,0,
13.23441, 18:31:52.337,0,0,0,0,0,0,0,0,0,
13.27526, 18:31:52.380,0,0,0,0,0,0,0,0,0,
13.32293, 18:31:52.432,0,0,0,0,0,0,0,0,0,
13.37662, 18:31:52.478,0,0,0,0,0,0,0,0,0,
13.42278, 18:31:52.525,0,0,0,0,0,0,0,0,0,
13.46911, 18:31:52.571,0,0,0,0,0,0,0,0,0,
13.51917, 18:31:52.622,0,0,0,0,0,0,0,0,0,
13.57518, 18:31:52.679,0,0,0,0,0,0,0,0,0,
13.62683, 18:31:52.730,0,0,0,0,0,0,0,0,0,
13.67654, 18:31:52.783,0,0,0,0,0,0,0,0,0,
13.73309, 18:31:52.839,0,0,0,0,0,0,0,0,0,
13.80348, 18:31:52.918,0,0,0,0,0,0,0,0,0,
13.87049, 18:31:52.975,0,0,0,0,0,0,0,0,0,
13.93902, 18:31:53.044,0,0,0,0,0,0,0,0,0,
13.99983, 18:31:53.102,0,0,0,0,0,0,0,0,0,
14.04454, 18:31:53.152,0,0,0,0,0,0,0,0,0,
14.09786, 18:31:53.199,0,0,0,0,0,0,0,0,0,
14.13771, 18:31:53.242,0,0,0,0,0,0,0,0,0,
14.18632, 18:31:53.288,0,0,0,0,0,0,0,0,0,
14.2265, 18:31:53.328,0,0,0,0,0,0,0,0,0,
14.27205, 18:31:53.373,0,0,0,0,0,0,0,0,0,
14.31678, 18:31:53.417,0,0,0,0,0,0,0,0,0,
14.35758, 18:31:53.458,0,0,0,0,0,0,0,0,0,
14.40066, 18:31:53.506,0,0,0,0,0,0,0,0,0,
14.44532, 18:31:53.546,0,0,0,0,0,0,0,0,0,
14.48486, 18:31:53.585,0,0,0,0,0,0,0,0,0,
14.53306, 18:31:53.639,0,0,0,0,0,0,0,0,0,
14.57917, 18:31:53.680,0,0,0,0,0,0,0,0,0,
14.62158, 18:31:53.724,0,0,0,0,0,0,0,0,0,
14.66401, 18:31:53.767,0,0,0,0,0,0,0,0,0,
14.70324, 18:31:53.804,0,0,0,0,0,0,0,0,0,
14.75687, 18:31:53.862,0,0,0,0,0,0,0,0,0,
14.80224, 18:31:53.905,0,0,0,0,0,0,0,0,0,
14.84397, 18:31:53.945,0,0,0,0,0,0,0,0,0,
14.89005, 18:31:53.993,0,0,0,0,0,0,0,0,0,
14.93478, 18:31:54.037,0,0,0,0,0,0,0,0,0,
14.99134, 18:31:54.097,0,0,0,0,0,0,0,0,0,
15.05413, 18:31:54.161,0,0,0,0,0,0,0,0,0,
15.11213, 18:31:54.217,0,0,0,0,0,0,0,0,0,
15.16726, 18:31:54.276,0,0,0,0,0,0,0,0,0,
15.22198, 18:31:54.324,0,0,0,0,0,0,0,0,0,
15.26241, 18:31:54.364,0,0,0,0,0,0,0,0,0,
15.31074, 18:31:54.411,0,0,0,0,0,0,0,0,0,
15.35127, 18:31:54.453,0,0,0,0,0,0,0,0,0,
15.39106, 18:31:54.493,0,0,0,0,0,0,0,0,0,
15.44041, 18:31:54.543,0,0,0,0,0,0,0,0,0,
15.48352, 18:31:54.585,0,0,0,0,0,0,0,0,0,
15.5296, 18:31:54.634,0,0,0,0,0,0,0,0,0,
15.57618, 18:31:54.678,0,0,0,0,0,0,0,0,0,
15.62085, 18:31:54.725,0,0,0,0,0,0,0,0,0,
15.67139, 18:31:54.772,0,0,0,0,0,0,0,0,0,
15.70768, 18:31:54.808,0,0,0,0,0,0,0,0,0,
15.75002, 18:31:54.852,0,0,0,0,0,0,0,0,0,
15.79462, 18:31:54.898,0,0,0,0,0,0,0,0,0,
15.83498, 18:31:54.935,0,0,0,0,0,0,0,0,0,
15.88043, 18:31:54.987,0,0,0,0,0,0,0,0,0,
15.92579, 18:31:55.028,0,0,0,0,0,0,0,0,0,
15.97296, 18:31:55.073,0,0,0,0,0,0,0,0,0,
16.0152, 18:31:55.116,0,0,0,0,0,0,0,0,0,
16.05515, 18:31:55.157,0,0,0,0,0,0,0,0,0,
16.10699, 18:31:55.208,0,0,0,0,0,0,0,0,0,
16.15292, 18:31:55.256,0,0,0,0,0,0,0,0,0,
16.1933, 18:31:55.293,0,0,0,0,0,0,0,0,0,
16.23968, 18:31:55.347,0,0,0,0,0,0,0,0,0,
16.29379, 18:31:55.399,0,0,0,0,0,0,0,0,0,
16.36624, 18:31:55.473,0,0,0,0,0,0,0,0,0,
16.4213, 18:31:55.526,0,0,0,0,0,0,0,0,0,
16.46953, 18:31:55.570,0,0,0,0,0,0,0,0,0,
16.51409, 18:31:55.615,0,0,0,0,0,0,0,0,0,
16.55687, 18:31:55.659,0,0,0,0,0,0,0,0,0,
16.59739, 18:31:55.700,0,0,0,0,0,0,0,0,0,
16.64263, 18:31:55.747,0,0,0,0,0,0,0,0,0,
16.68459, 18:31:55.784,0,0,0,0,0,0,0,0,0,
16.72663, 18:31:55.831,0,0,0,0,0,0,0,0,0,
16.77568, 18:31:55.877,0,0,0,0,0,0,0,0,0,
16.82012, 18:31:55.922,0,0,0,0,0,0,0,0,0,
16.85983, 18:31:55.962,0,0,0,0,0,0,0,0,0,
16.89974, 18:31:56.003,0,0,0,0,0,0,0,0,0,
16.95156, 18:31:56.057,0,0,0,0,0,0,0,0,0,
17.00547, 18:31:56.107,0,0,0,0,0,0,0,0,0,
17.05343, 18:31:56.156,0,0,0,0,0,0,0,0,0,
17.09621, 18:31:56.198,0,0,0,0,0,0,0,0,0,
17.13458, 18:31:56.236,0,0,0,0,0,0,0,0,0,
17.17982, 18:31:56.281,0,0,0,0,0,0,0,0,0,
17.22132, 18:31:56.325,0,0,0,0,0,0,0,0,0,
17.26097, 18:31:56.365,0,0,0,0,0,0,0,0,0,
17.30599, 18:31:56.406,0,0,0,0,0,0,0,0,0,
17.34499, 18:31:56.445,0,0,0,0,0,0,0,0,0,
17.38725, 18:31:56.489,0,0,0,0,0,0,0,0,0,
17.43278, 18:31:56.536,0,0,0,0,0,0,0,0,0,
17.48104, 18:31:56.585,0,0,0,0,0,0,0,0,0,
17.53787, 18:31:56.646,0,0,0,0,0,0,0,0,0,
17.60836, 18:31:56.712,0,0,0,0,0,0,0,0,0,
17.66283, 18:31:56.767,0,0,0,0,0,0,0,0,0,
17.7115, 18:31:56.813,0,0,0,0,0,0,0,0,0,
17.75669, 18:31:56.861,0,0,0,0,0,0,0,0,0,
17.79836, 18:31:56.898,0,0,0,0,0,0,0,0,0,
17.83773, 18:31:56.938,0,0,0,0,0,0,0,0,0,
17.8864, 18:31:56.990,0,0,0,0,0,0,0,0,0,
17.92932, 18:31:57.031,0,0,0,0,0,0,0,0,0,
17.96603, 18:31:57.067,0,0,0,0,0,0,0,0,0,
18.00781, 18:31:57.110,0,0,0,0,0,0,0,0,0,
18.05021, 18:31:57.152,0,0,0,0,0,0,0,0,0,
18.09197, 18:31:57.195,0,0,0,0,0,0,0,0,0,
18.13706, 18:31:57.237,0,0,0,0,0,0,0,0,0,
18.17627, 18:31:57.276,0,0,0,0,0,0,0,0,0,
18.21828, 18:31:57.320,0,0,0,0,0,0,0,0,0,
18.26592, 18:31:57.367,0,0,0,0,0,0,0,0,0,
18.30773, 18:31:57.407,0,0,0,0,0,0,0,0,0,
18.34686, 18:31:57.447,0,0,0,0,0,0,0,0,0,
18.39004, 18:31:57.492,0,0,0,0,0,0,0,0,0,
18.42871, 18:31:57.529,0,0,0,0,0,0,0,0,0,
18.46783, 18:31:57.569,0,0,0,0,0,0,0,0,0,
18.51595, 18:31:57.616,0,0,0,0,0,0,0,0,0,
18.55381, 18:31:57.655,0,0,0,0,0,0,0,0,0,
18.59492, 18:31:57.699,0,0,0,0,0,0,0,0,0,
18.63838, 18:31:57.739,0,0,0,0,0,0,0,0,0,
18.68033, 18:31:57.784,0,0,0,0,0,0,0,0,0,
18.7328, 18:31:57.838,0,0,0,0,0,0,0,0,0,
18.78758, 18:31:57.895,0,0,0,0,0,0,0,0,0,
18.86764, 18:31:57.972,0,0,0,0,0,0,0,0,0,
18.92621, 18:31:58.031,0,0,0,0,0,0,0,0,0,
18.97583, 18:31:58.078,0,0,0,0,0,0,0,0,0,
19.02855, 18:31:58.131,0,0,0,0,0,0,0,0,0,
19.07042, 18:31:58.173,0,0,0,0,0,0,0,0,0,
19.11325, 18:31:58.214,0,0,0,0,0,0,0,0,0,
19.15369, 18:31:58.254,0,0,0,0,0,0,0,0,0,
19.19835, 18:31:58.305,0,0,0,0,0,0,0,0,0,
19.24339, 18:31:58.346,0,0,0,0,0,0,0,0,0,
19.28483, 18:31:58.387,0,0,0,0,0,0,0,0,0,
19.3284, 18:31:58.431,0,0,0,0,0,0,0,0,0,
19.36829, 18:31:58.468,0,0,0,0,0,0,0,0,0,
19.40999, 18:31:58.513,0,0,0,0,0,0,0,0,0,
19.45483, 18:31:58.556,0,0,0,0,0,0,0,0,0,
19.49619, 18:31:58.597,0,0,0,0,0,0,0,0,0,
19.53795, 18:31:58.640,0,0,0,0,0,0,0,0,0,
19.57718, 18:31:58.678,0,0,0,0,0,0,0,0,0,
19.61907, 18:31:58.721,0,0,0,0,0,0,0,0,0,
19.66275, 18:31:58.765,0,0,0,0,0,0,0,0,0,
19.70414, 18:31:58.805,0,0,0,0,0,0,0,0,0,
19.74451, 18:31:58.849,0,0,0,0,0,0,0,0,0,
19.79481, 18:31:58.896,0,0,0,0,0,0,0,0,0,
19.83487, 18:31:58.936,0,0,0,0,0,0,0,0,0,
19.87528, 18:31:58.980,0,0,0,0,0,0,0,0,0,
19.91655, 18:31:59.019,0,0,0,0,0,0,0,0,0,
19.95752, 18:31:59.060,0,0,0,0,0,0,0,0,0,
20.00486, 18:31:59.111,0,0,0,0,0,0,0,0,0,
20.06447, 18:31:59.176,0,0,0,0,0,0,0,0,0,
20.13466, 18:31:59.239,0,0,0,0,0,0,0,0,0,
20.1819, 18:31:59.284,0,0,0,0,0,0,0,0,0,
20.22652, 18:31:59.328,0,0,0,0,0,0,0,0,0,
20.2721, 18:31:59.374,0,0,0,0,0,0,0,0,0,
20.31032, 18:31:59.412,0,0,0,0,0,0,0,0,0,
20.34922, 18:31:59.449,0,0,0,0,0,0,0,0,0,
20.3921, 18:31:59.493,0,0,0,0,0,0,0,0,0,
20.43054, 18:31:59.532,0,0,0,0,0,0,0,0,0,
20.4741, 18:31:59.578,0,0,0,0,0,0,0,0,0,
20.51683, 18:31:59.618,0,0,0,0,0,0,0,0,0,
20.55591, 18:31:59.658,0,0,0,0,0,0,0,0,0,
20.59775, 18:31:59.703,0,0,0,0,0,0,0,0,0,
20.64235, 18:31:59.744,0,0,0,0,0,0,0,0,0,
20.68277, 18:31:59.784,0,0,0,0,0,0,0,0,0,
20.72433, 18:31:59.830,0,0,0,0,0,0,0,0,0,
20.77367, 18:31:59.874,0,0,0,0,0,0,0,0,0,
20.81398, 18:31:59.916,0,0,0,0,0,0,0,0,0,
20.85911, 18:31:59.961,0,0,0,0,0,0,0,0,0,
20.90529, 18:32:00.007,0,0,0,0,0,0,0,0,0,
20.95287, 18:32:00.057,0,0,0,0,0,0,0,0,0,
21.00092, 18:32:00.104,0,0,0,0,0,0,0,0,0,
21.0451, 18:32:00.147,0,0,0,0,0,0,0,0,0,
21.08924, 18:32:00.193,0,0,0,0,0,0,0,0,0,
21.13742, 18:32:00.238,0,0,0,0,0,0,0,0,0,
21.18947, 18:32:00.293,0,0,0,0,0,0,0,0,0,
21.23952, 18:32:00.344,0,0,0,0,0,0,0,0,0,
21.29606, 18:32:00.401,0,0,0,0,0,0,0,0,0,
21.3803, 18:32:00.487,0,0,0,0,0,0,0,0,0,
21.43496, 18:32:00.539,0,0,0,0,0,0,0,0,0,
21.49403, 18:32:00.597,0,0,0,0,0,0,0,0,0,
21.53668, 18:32:00.637,0,0,0,0,0,0,0,0,0,
21.58268, 18:32:00.684,0,0,0,0,0,0,0,0,0,
21.6256, 18:32:00.734,0,0,0,0,0,0,0,0,0,
21.67371, 18:32:00.776,0,0,0,0,0,0,0,0,0,
21.71842, 18:32:00.820,0,0,0,0,0,0,0,0,0,
21.76556, 18:32:00.868,0,0,0,0,0,0,0,0,0,
21.82083, 18:32:00.923,0,0,0,0,0,0,0,0,0,
21.86247, 18:32:00.963,0,0,0,0,0,0,0,0,0,
21.90555, 18:32:01.007,0,0,0,0,0,0,0,0,0,
21.95524, 18:32:01.056,0,0,0,0,0,0,0,0,0,
22.00528, 18:32:01.108,0,0,0,0,0,0,0,0,0,
22.05263, 18:32:01.153,0,0,0,0,0,0,0,0,0,
22.09258, 18:32:01.193,0,0,0,0,0,0,0,0,0,
22.13954, 18:32:01.240,0,0,0,0,0,0,0,0,0,
22.17861, 18:32:01.280,0,0,0,0,0,0,0,0,0,
22.21962, 18:32:01.321,0,0,0,0,0,0,0,0,0,
22.2726, 18:32:01.375,0,0,0,0,0,0,0,0,0,
22.32451, 18:32:01.428,0,0,0,0,0,0,0,0,0,
22.38297, 18:32:01.487,0,0,0,0,0,0,0,0,0,
22.42872, 18:32:01.532,0,0,0,0,0,0,0,0,0,
22.4846, 18:32:01.602,0,0,0,0,0,0,0,0,0,
22.55899, 18:32:01.664,0,0,0,0,0,0,0,0,0,
22.6342, 18:32:01.748,0,0,0,0,0,0,0,0,0,
22.69896, 18:32:01.804,0,0,0,0,0,0,0,0,0,
22.75608, 18:32:01.860,0,0,0,0,0,0,0,0,0,
22.798, 18:32:01.899,0,0,0,0,0,0,0,0,0,
22.83787, 18:32:01.941,0,0,0,0,0,0,0,0,0,
22.88529, 18:32:01.987,0,0,0,0,0,0,0,0,0,
22.9441, 18:32:02.046,0,0,0,0,0,0,0,0,0,
22.99364, 18:32:02.095,0,0,0,0,0,0,0,0,0,
23.05655, 18:32:02.158,0,0,0,0,0,0,0,0,0,
23.10818, 18:32:02.210,0,0,0,0,0,0,0,0,0,
23.17021, 18:32:02.273,0,0,0,0,0,0,0,0,0,
23.21389, 18:32:02.315,0,0,0,0,0,0,0,0,0,
23.27823, 18:32:02.383,0,0,0,0,0,0,0,0,0,
23.32829, 18:32:02.430,0,0,0,0,0,0,0,0,0,
23.38903, 18:32:02.492,0,0,0,0,0,0,0,0,0,
23.43773, 18:32:02.538,0,0,0,0,0,0,0,0,0,
23.50026, 18:32:02.603,0,0,0,0,0,0,0,0,0,
23.55126, 18:32:02.652,0,0,0,0,0,0,0,0,0,
23.61209, 18:32:02.714,0,0,0,0,0,0,0,0,0,
23.65821, 18:32:02.758,0,0,0,0,0,0,0,0,0,
23.72276, 18:32:02.825,0,0,0,0,0,0,0,0,0,
23.77901, 18:32:02.882,0,0,0,0,0,0,0,0,0,
23.83444, 18:32:02.938,0,0,0,0,0,0,0,0,0,
23.9268, 18:32:03.032,0,0,0,0,0,0,0,0,0,
23.97854, 18:32:03.083,0,0,0,0,0,0,0,0,0,
24.02781, 18:32:03.129,0,0,0,0,0,0,0,0,0,
24.06924, 18:32:03.170,0,0,0,0,0,0,0,0,0,
24.11218, 18:32:03.215,0,0,0,0,0,0,0,0,0,
24.16838, 18:32:03.269,0,0,0,0,0,0,0,0,0,
24.21813, 18:32:03.319,0,0,0,0,0,0,0,0,0,
24.28014, 18:32:03.384,0,0,0,0,0,0,0,0,0,
24.34737, 18:32:03.451,0,0,0,0,0,0,0,0,0,
24.38926, 18:32:03.490,0,0,0,0,0,0,0,0,0,
24.44037, 18:32:03.543,0,0,0,0,0,0,0,0,0,
24.502, 18:32:03.603,0,0,0,0,0,0,0,0,0,
24.54914, 18:32:03.649,0,0,0,0,0,0,0,0,0,
24.61681, 18:32:03.718,0,0,0,0,0,0,0,0,0,
24.66384, 18:32:03.765,0,0,0,0,0,0,0,0,0,
24.72593, 18:32:03.831,0,0,0,0,0,0,0,0,0,
24.77232, 18:32:03.874,0,0,0,0,0,0,0,0,0,
24.83465, 18:32:03.937,0,0,0,0,0,0,0,0,0,
24.89115, 18:32:03.993,0,0,0,0,0,0,0,0,0,
24.95037, 18:32:04.053,0,0,0,0,0,0,0,0,0,
25.00145, 18:32:04.103,0,0,0,0,0,0,0,0,0,
25.06996, 18:32:04.176,0,0,0,0,0,0,0,0,0,
25.15268, 18:32:04.257,0,0,0,0,0,0,0,0,0,
25.20511, 18:32:04.309,0,0,0,0,0,0,0,0,0,
25.25377, 18:32:04.354,0,0,0,0,0,0,0,0,0,
25.29676, 18:32:04.398,0,0,0,0,0,0,0,0,0,
25.35229, 18:32:04.455,0,0,0,0,0,0,0,0,0,
25.39718, 18:32:04.500,0,0,0,0,0,0,0,0,0,
25.46021, 18:32:04.562,0,0,0,0,0,0,0,0,0,
25.50572, 18:32:04.609,0,0,0,0,0,0,0,0,0,
25.57546, 18:32:04.676,0,0,0,0,0,0,0,0,0,
25.61978, 18:32:04.720,0,0,0,0,0,0,0,0,0,
25.68142, 18:32:04.785,0,0,0,0,0,0,0,0,0,
25.73371, 18:32:04.836,0,0,0,0,0,0,0,0,0,
25.79389, 18:32:04.895,0,0,0,0,0,0,0,0,0,
25.84292, 18:32:04.949,0,0,0,0,0,0,0,0,0,
25.90819, 18:32:05.014,0,0,0,0,0,0,0,0,0,
25.9682, 18:32:05.074,0,0,0,0,0,0,0,0,0,
26.02346, 18:32:05.126,0,0,0,0,0,0,0,0,0,
26.09085, 18:32:05.200,0,0,0,0,0,0,0,0,0,
26.18211, 18:32:05.293,0,0,0,0,0,0,0,0,0,
26.25965, 18:32:05.365,0,0,0,0,0,0,0,0,0,
26.31596, 18:32:05.421,0,0,0,0,0,0,0,0,0,
26.40016, 18:32:05.504,0,0,0,0,0,0,0,0,0,
26.46005, 18:32:05.566,0,0,0,0,0,0,0,0,0,
26.51789, 18:32:05.618,0,0,0,0,0,0,0,0,0,
26.57061, 18:32:05.673,0,0,0,0,0,0,0,0,0,
26.62099, 18:32:05.722,0,0,0,0,0,0,0,0,0,
26.6656, 18:32:05.768,0,0,0,0,0,0,0,0,0,
26.71056, 18:32:05.812,0,0,0,0,0,0,0,0,0,
26.7654, 18:32:05.868,0,0,0,0,0,0,0,0,0,
26.81025, 18:32:05.911,0,0,0,0,0,0,0,0,0,
26.85448, 18:32:05.958,0,0,0,0,0,0,0,0,0,
26.90401, 18:32:06.005,0,0,0,0,0,0,0,0,0,
26.94825, 18:32:06.049,0,0,0,0,0,0,0,0,0,
26.99282, 18:32:06.095,0,0,0,0,0,0,0,0,0,
27.0379, 18:32:06.143,0,0,0,0,0,0,0,0,0,
27.10857, 18:32:06.212,0,0,0,0,0,0,0,0,0,
27.17587, 18:32:06.277,0,0,0,0,0,0,0,0,0,
27.22891, 18:32:06.333,0,0,0,0,0,0,0,0,0,
27.279, 18:32:06.380,0,0,0,0,0,0,0,0,0,
27.34792, 18:32:06.453,0,0,0,0,0,0,0,0,0,
27.39784, 18:32:06.499,0,0,0,0,0,0,0,0,0,
27.44087, 18:32:06.546,0,0,0,0,0,0,0,0,0,
27.49677, 18:32:06.600,0,0,0,0,0,0,0,0,0,
27.57296, 18:32:06.681,0,0,0,0,0,0,0,0,0,
27.64874, 18:32:06.754,0,0,0,0,0,0,0,0,0,
27.70767, 18:32:06.809,0,0,0,0,0,0,0,0,0,
27.75526, 18:32:06.856,0,0,0,0,0,0,0,0,0,
27.80202, 18:32:06.909,0,0,0,0,0,0,0,0,0,
27.86184, 18:32:06.965,0,0,0,0,0,0,0,0,0,
27.90813, 18:32:07.009,0,0,0,0,0,0,0,0,0,
27.96018, 18:32:07.063,0,0,0,0,0,0,0,0,0,
28.01889, 18:32:07.121,0,0,0,0,0,0,0,0,0,
28.06325, 18:32:07.166,0,0,0,0,0,0,0,0,0,
28.1036, 18:32:07.206,0,0,0,0,0,0,0,0,0,
28.14749, 18:32:07.249,0,0,0,0,0,0,0,0,0,
28.19227, 18:32:07.294,0,0,0,0,0,0,0,0,0,
28.23201, 18:32:07.336,0,0,0,0,0,0,0,0,0,
28.28302, 18:32:07.384,0,0,0,0,0,0,0,0,0,
28.32588, 18:32:07.426,0,0,0,0,0,0,0,0,0,
28.39172, 18:32:07.493,0,0,0,0,0,0,0,0,0,
28.43537, 18:32:07.535,0,0,0,0,0,0,0,0,0,
28.47887, 18:32:07.584,0,0,0,0,0,0,0,0,0,
28.5239, 18:32:07.625,0,0,0,0,0,0,0,0,0,
28.56545, 18:32:07.668,0,0,0,0,0,0,0,0,0,
28.61285, 18:32:07.715,0,0,0,0,0,0,0,0,0,
28.65848, 18:32:07.759,0,0,0,0,0,0,0,0,0,
28.70707, 18:32:07.809,0,0,0,0,0,0,0,0,0,
28.76218, 18:32:07.868,0,0,0,0,0,0,0,0,0,
28.81426, 18:32:07.919,0,0,0,0,0,0,0,0,0,
28.89569, 18:32:08.002,0,0,0,0,0,0,0,0,0,
28.9531, 18:32:08.056,0,0,0,0,0,0,0,0,0,
29.01139, 18:32:08.112,0,0,0,0,0,0,0,0,0,
29.05096, 18:32:08.151,0,0,0,0,0,0,0,0,0,
29.10789, 18:32:08.210,0,0,0,0,0,0,0,0,0,
29.14909, 18:32:08.249,0,0,0,0,0,0,0,0,0,
29.19073, 18:32:08.293,0,0,0,0,0,0,0,0,0,
29.24376, 18:32:08.347,0,0,0,0,0,0,0,0,0,
29.29279, 18:32:08.394,0,0,0,0,0,0,0,0,0,
29.34702, 18:32:08.449,0,0,0,0,0,0,0,0,0,
29.39416, 18:32:08.495,0,0,0,0,0,0,0,0,0,
29.43892, 18:32:08.542,0,0,0,0,0,0,0,0,0,
29.48766, 18:32:08.589,0,0,0,0,0,0,0,0,0,
29.5305, 18:32:08.634,0,0,0,0,0,0,0,0,0,
29.58067, 18:32:08.683,0,0,0,0,0,0,0,0,0,
29.62825, 18:32:08.729,0,0,0,0,0,0,0,0,0,
29.66866, 18:32:08.770,0,0,0,0,0,0,0,0,0,
29.71507, 18:32:08.816,0,0,0,0,0,0,0,0,0,
29.75758, 18:32:08.859,0,0,0,0,0,0,0,0,0,
29.80052, 18:32:08.905,0,0,0,0,0,0,0,0,0,
29.84816, 18:32:08.951,0,0,0,0,0,0,0,0,0,
29.8919, 18:32:08.993,0,0,0,0,0,0,0,0,0,
29.93828, 18:32:09.039,0,0,0,0,0,0,0,0,0,
29.9883, 18:32:09.092,0,0,0,0,0,0,0,0,0,
30.04319, 18:32:09.151,0,0,0,0,0,0,0,0,0,
30.11561, 18:32:09.223,0,0,0,0,0,0,0,0,0,
30.17705, 18:32:09.280,0,0,0,0,0,0,0,0,0,
30.22995, 18:32:09.335,0,0,0,0,0,0,0,0,0,
30.27715, 18:32:09.381,0,0,0,0,0,0,0,0,0,
30.33023, 18:32:09.432,0,0,0,0,0,0,0,0,0,
30.37482, 18:32:09.475,0,0,0,0,0,0,0,0,0,
30.42304, 18:32:09.525,0,0,0,0,0,0,0,0,0,
30.46359, 18:32:09.565,0,0,0,0,0,0,0,0,0,
30.51001, 18:32:09.612,0,0,0,0,0,0,0,0,0,
30.55594, 18:32:09.657,0,0,0,0,0,0,0,0,0,
30.61087, 18:32:09.714,0,0,0,0,0,0,0,0,0,
30.65796, 18:32:09.757,0,0,0,0,0,0,0,0,0,
30.70343, 18:32:09.805,0,0,0,0,0,0,0,0,0,
30.75995, 18:32:09.863,0,0,0,0,0,0,0,0,0,
30.82152, 18:32:09.924,0,0,0,0,0,0,0,0,0,
30.87006, 18:32:09.972,0,0,0,0,0,0,0,0,0,
30.91155, 18:32:10.014,0,0,0,0,0,0,0,0,0,
30.95385, 18:32:10.056,0,0,0,0,0,0,0,0,0,
31.00596, 18:32:10.108,0,0,0,0,0,0,0,0,0,
31.08204, 18:32:10.184,0,0,0,0,0,0,0,0,0,
31.24827, 18:32:10.358,0,0,0,0,0,0,0,0,0,
31.34077, 18:32:10.449,0,0,0,0,0,0,0,0,0,
31.41133, 18:32:10.519,0,0,0,0,0,0,0,0,0,
31.49166, 18:32:10.596,0,0,0,0,0,0,0,0,0,
31.56017, 18:32:10.665,0,0,0,0,0,0,0,0,0,
31.64033, 18:32:10.746,0,0,0,0,0,0,0,0,0,
31.70726, 18:32:10.809,0,0,0,0,0,0,0,0,0,
31.76276, 18:32:10.869,0,0,0,0,0,0,0,0,0,
31.81469, 18:32:10.916,0,0,0,0,0,0,0,0,0,
31.8716, 18:32:10.975,0,0,0,0,0,0,0,0,0,
31.92247, 18:32:11.025,0,0,0,0,0,0,0,0,0,
31.97564, 18:32:11.076,0,0,0,0,0,0,0,0,0,
32.03514, 18:32:11.138,0,0,0,0,0,0,0,0,0,
32.08612, 18:32:11.187,0,0,0,0,0,0,0,0,0,
32.14357, 18:32:11.245,0,0,0,0,0,0,0,0,0,
32.20492, 18:32:11.306,0,0,0,0,0,0,0,0,0,
32.25689, 18:32:11.357,0,0,0,0,0,0,0,0,0,
32.30167, 18:32:11.405,0,0,0,0,0,0,0,0,0,
32.3553, 18:32:11.459,0,0,0,0,0,0,0,0,0,
32.41507, 18:32:11.518,0,0,0,0,0,0,0,0,0,
32.47305, 18:32:11.575,0,0,0,0,0,0,0,0,0,
32.53866, 18:32:11.646,0,0,0,0,0,0,0,0,0,
32.60889, 18:32:11.720,0,0,0,0,0,0,0,0,0,
32.67101, 18:32:11.776,0,0,0,0,0,0,0,0,0,
32.73879, 18:32:11.841,0,0,0,0,0,0,0,0,0,
32.79249, 18:32:11.897,0,0,0,0,0,0,0,0,0,
32.83879, 18:32:11.943,0,0,0,0,0,0,0,0,0,
32.90229, 18:32:12.007,0,0,0,0,0,0,0,0,0,
32.95887, 18:32:12.059,0,0,0,0,0,0,0,0,0,
33.01396, 18:32:12.116,0,0,0,0,0,0,0,0,0,
33.10115, 18:32:12.207,0,0,0,0,0,0,0,0,0,
33.1698, 18:32:12.273,0,0,0,0,0,0,0,0,0,
33.23458, 18:32:12.336,0,0,0,0,0,0,0,0,0,
33.27976, 18:32:12.383,0,0,0,0,0,0,0,0,0,
33.32682, 18:32:12.428,0,0,0,0,0,0,0,0,0,
33.38798, 18:32:12.488,0,0,0,0,0,0,0,0,0,
33.43853, 18:32:12.540,0,0,0,0,0,0,0,0,0,
33.48402, 18:32:12.591,0,0,0,0,0,0,0,0,0,
33.54485, 18:32:12.648,0,0,0,0,0,0,0,0,0,
33.59555, 18:32:12.699,0,0,0,0,0,0,0,0,0,
33.64676, 18:32:12.748,0,0,0,0,0,0,0,0,0,
33.70297, 18:32:12.807,0,0,0,0,0,0,0,0,0,
33.76188, 18:32:12.866,0,0,0,0,0,0,0,0,0,
33.82753, 18:32:12.935,0,0,0,0,0,0,0,0,0,
33.90775, 18:32:13.010,0,0,0,0,0,0,0,0,0,
33.96199, 18:32:13.068,0,0,0,0,0,0,0,0,0,
34.01682, 18:32:13.119,0,0,0,0,0,0,0,0,0,
34.08141, 18:32:13.187,0,0,0,0,0,0,0,0,0,
34.13671, 18:32:13.237,0,0,0,0,0,0,0,0,0,
34.18533, 18:32:13.288,0,0,0,0,0,0,0,0,0,
34.24907, 18:32:13.351,0,0,0,0,0,0,0,0,0,
34.29358, 18:32:13.396,0,0,0,0,0,0,0,0,0,
34.3434, 18:32:13.445,0,0,0,0,0,0,0,0,0,
34.40042, 18:32:13.502,0,0,0,0,0,0,0,0,0,
34.44857, 18:32:13.550,0,0,0,0,0,0,0,0,0,
34.49662, 18:32:13.597,0,0,0,0,0,0,0,0,0,
34.55811, 18:32:13.659,0,0,0,0,0,0,0,0,0,
34.60086, 18:32:13.703,0,0,0,0,0,0,0,0,0,
34.65405, 18:32:13.756,0,0,0,0,0,0,0,0,0,
34.71518, 18:32:13.818,0,0,0,0,0,0,0,0,0,
34.76325, 18:32:13.871,0,0,0,0,0,0,0,0,0,
34.81658, 18:32:13.917,0,0,0,0,0,0,0,0,0,
34.87978, 18:32:13.982,0,0,0,0,0,0,0,0,0,
34.92458, 18:32:14.027,0,0,0,0,0,0,0,0,0,
34.96839, 18:32:14.072,0,0,0,0,0,0,0,0,0,
35.04382, 18:32:14.152,0,0,0,0,0,0,0,0,0,
35.12065, 18:32:14.226,0,0,0,0,0,0,0,0,0,
35.18907, 18:32:14.293,0,0,0,0,0,0,0,0,0,
35.25031, 18:32:14.354,0,0,0,0,0,0,0,0,0,
35.33656, 18:32:14.442,0,0,0,0,0,0,0,0,0,
35.40771, 18:32:14.512,0,0,0,0,0,0,0,0,0,
35.46988, 18:32:14.577,0,0,0,0,0,0,0,0,0,
35.53205, 18:32:14.634,0,0,0,0,0,0,0,0,0,
35.58725, 18:32:14.689,0,0,0,0,0,0,0,0,0,
35.64068, 18:32:14.741,0,0,0,0,0,0,0,0,0,
35.68672, 18:32:14.788,0,0,0,0,0,0,0,0,0,
35.76538, 18:32:14.870,0,0,0,0,0,0,0,0,0,
35.82612, 18:32:14.929,0,0,0,0,0,0,0,0,0,
35.8845, 18:32:14.987,0,0,0,0,0,0,0,0,0,
35.96688, 18:32:15.070,0,0,0,0,0,0,0,0,0,
36.02027, 18:32:15.122,0,0,0,0,0,0,0,0,0,
36.08603, 18:32:15.188,0,0,0,0,0,0,0,0,0,
36.16158, 18:32:15.265,0,0,0,0,0,0,0,0,0,
36.22589, 18:32:15.329,0,0,0,0,0,0,0,0,0,
36.29466, 18:32:15.401,0,0,0,0,0,0,0,0,0,
36.38097, 18:32:15.485,0,0,0,0,0,0,0,0,0,
36.43927, 18:32:15.541,0,0,0,0,0,0,0,0,0,
36.49432, 18:32:15.596,0,0,0,0,0,0,0,0,0,
36.56525, 18:32:15.669,0,0,0,0,0,0,0,0,0,
36.61964, 18:32:15.720,0,0,0,0,0,0,0,0,0,
36.68841, 18:32:15.792,0,0,0,0,0,0,0,0,0,
36.7632, 18:32:15.869,0,0,0,0,0,0,0,0,0,
36.82129, 18:32:15.923,0,0,0,0,0,0,0,0,0,
36.89136, 18:32:15.994,0,0,0,0,0,0,0,0,0,
36.96186, 18:32:16.064,0,0,0,0,0,0,0,0,0,
37.02472, 18:32:16.127,0,0,0,0,0,0,0,0,0,
37.08823, 18:32:16.210,0,0,0,0,0,0,0,0,0,
37.16632, 18:32:16.269,0,0,0,0,0,0,0,0,0,
37.2258, 18:32:16.328,0,0,0,0,0,0,0,0,0,
37.28421, 18:32:16.385,0,0,0,0,0,0,0,0,0,
37.35757, 18:32:16.458,0,0,0,0,0,0,0,0,0,
37.42619, 18:32:16.529,0,0,0,0,0,0,0,0,0,
37.50167, 18:32:16.610,0,0,0,0,0,0,0,0,0,
37.60201, 18:32:16.707,0,0,0,0,0,0,0,0,0,
37.66035, 18:32:16.763,0,0,0,0,0,0,0,0,0,
37.72649, 18:32:16.830,0,0,0,0,0,0,0,0,0,
37.77818, 18:32:16.879,0,0,0,0,0,0,0,0,0,
37.8192, 18:32:16.920,0,0,0,0,0,0,0,0,0,
37.89278, 18:32:16.997,0,0,0,0,0,0,0,0,0,
37.95369, 18:32:17.056,0,0,0,0,0,0,0,0,0,
38.01708, 18:32:17.118,0,0,0,0,0,0,0,0,0,
38.09703, 18:32:17.199,0,0,0,0,0,0,0,0,0,
38.16177, 18:32:17.264,0,0,0,0,0,0,0,0,0,
38.22313, 18:32:17.325,0,0,0,0,0,0,0,0,0,
38.29996, 18:32:17.403,0,0,0,0,0,0,0,0,0,
38.35334, 18:32:17.455,0,0,0,0,0,0,0,0,0,
38.41843, 18:32:17.519,0,0,0,0,0,0,0,0,0,
38.50016, 18:32:17.604,0,0,0,0,0,0,0,0,0,
38.62283, 18:32:17.729,0,0,0,0,0,0,0,0,0,
38.68258, 18:32:17.787,0,0,0,0,0,0,0,0,0,
38.74354, 18:32:17.848,0,0,0,0,0,0,0,0,0,
38.85052, 18:32:17.957,0,0,0,0,0,0,0,0,0,
38.91962, 18:32:18.022,0,0,0,0,0,0,0,0,0,
38.96609, 18:32:18.069,0,0,0,0,0,0,0,0,0,
39.01436, 18:32:18.116,0,0,0,0,0,0,0,0,0,
39.07417, 18:32:18.183,0,0,0,0,0,0,0,0,0,
39.12924, 18:32:18.232,0,0,0,0,0,0,0,0,0,
39.19175, 18:32:18.295,0,0,0,0,0,0,0,0,0,
39.27182, 18:32:18.375,0,0,0,0,0,0,0,0,0,
39.32879, 18:32:18.431,0,0,0,0,0,0,0,0,0,
39.39225, 18:32:18.495,0,0,0,0,0,0,0,0,0,
39.47442, 18:32:18.579,0,0,0,0,0,0,0,0,0,
39.52851, 18:32:18.631,0,0,0,0,0,0,0,0,0,
39.59331, 18:32:18.695,0,0,0,0,0,0,0,0,0,
39.67344, 18:32:18.776,0,0,0,0,0,0,0,0,0,
39.73029, 18:32:18.832,0,0,0,0,0,0,0,0,0,
39.79468, 18:32:18.899,0,0,0,0,0,0,0,0,0,
39.87479, 18:32:18.978,0,0,0,0,0,0,0,0,0,
39.92932, 18:32:19.033,0,0,0,0,0,0,0,0,0,
40.0147, 18:32:19.123,0,0,0,0,0,0,0,0,0,
40.10332, 18:32:19.209,0,0,0,0,0,0,0,0,0,
40.16538, 18:32:19.272,0,0,0,0,0,0,0,0,0,
40.21997, 18:32:19.321,0,0,0,0,0,0,0,0,0,
40.2723, 18:32:19.375,0,0,0,0,0,0,0,0,0,
40.31786, 18:32:19.420,0,0,0,0,0,0,0,0,0,
40.38742, 18:32:19.490,0,0,0,0,0,0,0,0,0,
40.4534, 18:32:19.555,0,0,0,0,0,0,0,0,0,
40.51939, 18:32:19.621,0,0,0,0,0,0,0,0,0,
40.58813, 18:32:19.693,0,0,0,0,0,0,0,0,0,
40.65546, 18:32:19.757,0,0,0,0,0,0,0,0,0,
40.72247, 18:32:19.828,0,0,0,0,0,0,0,0,0,
40.78857, 18:32:19.894,0,0,0,0,0,0,0,0,0,
40.85545, 18:32:19.958,0,0,0,0,0,0,0,0,0,
40.91734, 18:32:20.022,0,0,0,0,0,0,0,0,0,
40.99074, 18:32:20.095,0,0,0,0,0,0,0,0,0,
41.05301, 18:32:20.155,0,0,0,0,0,0,0,0,0,
41.11819, 18:32:20.222,0,0,0,0,0,0,0,0,0,
41.19096, 18:32:20.296,0,0,0,0,0,0,0,0,0,
41.29053, 18:32:20.394,0,0,0,0,0,0,0,0,0,
41.3458, 18:32:20.450,0,0,0,0,0,0,0,0,0,
41.39928, 18:32:20.502,0,0,0,0,0,0,0,0,0,
41.45022, 18:32:20.552,0,0,0,0,0,0,0,0,0,
41.5224, 18:32:20.625,0,0,0,0,0,0,0,0,0,
41.58663, 18:32:20.689,0,0,0,0,0,0,0,0,0,
41.65187, 18:32:20.754,0,0,0,0,0,0,0,0,0,
41.72167, 18:32:20.824,0,0,0,0,0,0,0,0,0,
41.78732, 18:32:20.889,0,0,0,0,0,0,0,0,0,
41.85416, 18:32:20.956,0,0,0,0,0,0,0,0,0,
41.92255, 18:32:21.027,0,0,0,0,0,0,0,0,0,
41.98655, 18:32:21.089,0,0,0,0,0,0,0,0,0,
42.04965, 18:32:21.152,0,0,0,0,0,0,0,0,0,
42.12161, 18:32:21.224,0,0,0,0,0,0,0,0,0,
42.18857, 18:32:21.290,0,0,0,0,0,0,0,0,0,
42.25031, 18:32:21.352,0,0,0,0,0,0,0,0,0,
42.32432, 18:32:21.428,0,0,0,0,0,0,0,0,0,
42.38948, 18:32:21.492,0,0,0,0,0,0,0,0,0,
42.45154, 18:32:21.558,0,0,0,0,0,0,0,0,0,
42.54135, 18:32:21.650,0,0,0,0,0,0,0,0,0,
42.597, 18:32:21.700,0,0,0,0,0,0,0,0,0,
42.64933, 18:32:21.751,0,0,0,0,0,0,0,0,0,
42.72015, 18:32:21.822,0,0,0,0,0,0,0,0,0,
42.78909, 18:32:21.891,0,0,0,0,0,0,0,0,0,
42.85041, 18:32:21.953,0,0,0,0,0,0,0,0,0,
42.92142, 18:32:22.024,0,0,0,0,0,0,0,0,0,
42.98829, 18:32:22.090,0,0,0,0,0,0,0,0,0,
43.04924, 18:32:22.152,0,0,0,0,0,0,0,0,0,
43.11941, 18:32:22.221,0,0,0,0,0,0,0,0,0,
43.18531, 18:32:22.288,0,0,0,0,0,0,0,0,0,
43.25124, 18:32:22.355,0,0,0,0,0,0,0,0,0,
43.3216, 18:32:22.424,0,0,0,0,0,0,0,0,0,
43.38658, 18:32:22.487,0,0,0,0,0,0,0,0,0,
43.45308, 18:32:22.555,0,0,0,0,0,0,0,0,0,
43.52069, 18:32:22.624,0,0,0,0,0,0,0,0,0,
43.58869, 18:32:22.693,0,0,0,0,0,0,0,0,0,
43.65701, 18:32:22.764,0,0,0,0,0,0,0,0,0,
43.74324, 18:32:22.849,0,0,0,0,0,0,0,0,0,
43.80796, 18:32:22.911,0,0,0,0,0,0,0,0,0,
43.86077, 18:32:22.964,0,0,0,0,0,0,0,0,0,
43.92295, 18:32:23.025,0,0,0,0,0,0,0,0,0,
43.98409, 18:32:23.085,0,0,0,0,0,0,0,0,0,
44.05579, 18:32:23.157,0,0,0,0,0,0,0,0,0,
44.12436, 18:32:23.228,0,0,0,0,0,0,0,0,0,
44.18752, 18:32:23.288,0,0,0,0,0,0,0,0,0,
44.25366, 18:32:23.356,0,0,0,0,0,0,0,0,0,
44.32234, 18:32:23.427,0,0,0,0,0,0,0,0,0,
44.39024, 18:32:23.492,0,0,0,0,0,0,0,0,0,
44.45465, 18:32:23.556,0,0,0,0,0,0,0,0,0,
44.52167, 18:32:23.625,0,0,0,0,0,0,0,0,0,
44.58693, 18:32:23.688,0,0,0,0,0,0,0,0,0,
44.65916, 18:32:23.760,0,0,0,0,0,0,0,0,0,
44.71926, 18:32:23.824,0,0,0,0,0,0,0,0,0,
44.78793, 18:32:23.892,0,0,0,0,0,0,0,0,0,
44.86226, 18:32:23.970,0,0,0,0,0,0,0,0,0,
44.93277, 18:32:24.040,0,0,0,0,0,0,0,0,0,
44.99657, 18:32:24.100,0,0,0,0,0,0,0,0,0,
45.05752, 18:32:24.159,0,0,0,0,0,0,0,0,0,
45.11975, 18:32:24.223,0,0,0,0,0,0,0,0,0,
45.18204, 18:32:24.284,0,0,0,0,0,0,0,0,0,
45.2538, 18:32:24.358,0,0,0,0,0,0,0,0,0,
45.32166, 18:32:24.425,0,0,0,0,0,0,0,0,0,
45.38327, 18:32:24.486,0,0,0,0,0,0,0,0,0,
45.45767, 18:32:24.561,0,0,0,0,0,0,0,0,0,
45.53022, 18:32:24.635,0,0,0,0,0,0,0,0,0,
45.58326, 18:32:24.685,0,0,0,0,0,0,0,0,0,
45.65454, 18:32:24.756,0,0,0,0,0,0,0,0,0,
45.72705, 18:32:24.830,0,0,0,0,0,0,0,0,0,
45.79975, 18:32:24.903,0,0,0,0,0,0,0,0,0,
45.85413, 18:32:24.959,0,0,0,0,0,0,0,0,0,
45.91975, 18:32:25.020,0,0,0,0,0,0,0,0,0,
45.98365, 18:32:25.087,0,0,0,0,0,0,0,0,0,
46.05799, 18:32:25.161,0,0,0,0,0,0,0,0,0,
46.12403, 18:32:25.237,0,0,0,0,0,0,0,0,0,
46.1928, 18:32:25.299,0,0,0,0,0,0,0,0,0,
46.2589, 18:32:25.360,0,0,0,0,0,0,0,0,0,
46.33102, 18:32:25.434,0,0,0,0,0,0,0,0,0,
46.38768, 18:32:25.489,0,0,0,0,0,0,0,0,0,
46.45304, 18:32:25.555,0,0,0,0,0,0,0,0,0,
46.5232, 18:32:25.627,0,0,0,0,0,0,0,0,0,
46.58231, 18:32:25.684,0,0,0,0,0,0,0,0,0,
46.65479, 18:32:25.756,0,0,0,0,0,0,0,0,0,
46.72454, 18:32:25.830,0,0,0,0,0,0,0,0,0,
46.78358, 18:32:25.887,0,0,0,0,0,0,0,0,0,
46.8528, 18:32:25.957,0,0,0,0,0,0,0,0,0,
46.9198, 18:32:26.023,0,0,0,0,0,0,0,0,0,
46.99634, 18:32:26.101,0,0,0,0,0,0,0,0,0,
47.05764, 18:32:26.159,0,0,0,0,0,0,0,0,0,
47.12017, 18:32:26.223,0,0,0,0,0,0,0,0,0,
47.18656, 18:32:26.288,0,0,0,0,0,0,0,0,0,
47.2541, 18:32:26.356,0,0,0,0,0,0,0,0,0,
47.32206, 18:32:26.428,0,0,0,0,0,0,0,0,0,
47.41961, 18:32:26.523,0,0,0,0,0,0,0,0,0,
47.48167, 18:32:26.586,0,0,0,0,0,0,0,0,0,
47.53182, 18:32:26.633,0,0,0,0,0,0,0,0,0,
47.58522, 18:32:26.688,0,0,0,0,0,0,0,0,0,
47.65685, 18:32:26.759,0,0,0,0,0,0,0,0,0,
47.7192, 18:32:26.822,0,0,0,0,0,0,0,0,0,
47.78145, 18:32:26.885,0,0,0,0,0,0,0,0,0,
47.8577, 18:32:26.960,0,0,0,0,0,0,0,0,0,
47.92188, 18:32:27.026,0,0,0,0,0,0,0,0,0,
47.98441, 18:32:27.087,0,0,0,0,0,0,0,0,0,
48.05429, 18:32:27.157,0,0,0,0,0,0,0,0,0,
48.11922, 18:32:27.222,0,0,0,0,0,0,0,0,0,
48.18129, 18:32:27.285,0,0,0,0,0,0,0,0,0,
48.25305, 18:32:27.355,0,0,0,0,0,0,0,0,0,
48.32386, 18:32:27.428,0,0,0,0,0,0,0,0,0,
48.38386, 18:32:27.487,0,0,0,0,0,0,0,0,0,
48.45601, 18:32:27.559,0,0,0,0,0,0,0,0,0,
48.52523, 18:32:27.632,0,0,0,0,0,0,0,0,0,
48.58827, 18:32:27.695,0,0,0,0,0,0,0,0,0,
48.66227, 18:32:27.769,0,0,0,0,0,0,0,0,0,
48.72755, 18:32:27.833,0,0,0,0,0,0,0,0,0,
48.7872, 18:32:27.892,0,0,0,0,0,0,0,0,0,
48.85479, 18:32:27.957,0,0,0,0,0,0,0,0,0,
48.92261, 18:32:28.028,0,0,0,0,0,0,0,0,0,
48.9867, 18:32:28.089,0,0,0,0,0,0,0,0,0,
49.05687, 18:32:28.161,0,0,0,0,0,0,0,0,0,
49.11921, 18:32:28.221,0,0,0,0,0,0,0,0,0,
49.18044, 18:32:28.284,0,0,0,0,0,0,0,0,0,
49.25843, 18:32:28.361,0,0,0,0,0,0,0,0,0,
49.31775, 18:32:28.421,0,0,0,0,0,0,0,0,0,
49.38103, 18:32:28.485,0,0,0,0,0,0,0,0,0,
49.45565, 18:32:28.558,0,0,0,0,0,0,0,0,0,
49.51637, 18:32:28.618,0,0,0,0,0,0,0,0,0,
49.58049, 18:32:28.684,0,0,0,0,0,0,0,0,0,
49.65146, 18:32:28.754,0,0,0,0,0,0,0,0,0,
49.72064, 18:32:28.824,0,0,0,0,0,0,0,0,0,
49.79231, 18:32:28.898,0,0,0,0,0,0,0,0,0,
49.91613, 18:32:29.024,0,0,0,0,0,0,0,0,0,
49.9889, 18:32:29.093,0,0,0,0,0,0,0,0,0,
50.05243, 18:32:29.155,0,0,0,0,0,0,0,0,0,
50.12196, 18:32:29.225,0,0,0,0,0,0,0,0,0,
50.18372, 18:32:29.287,0,0,0,0,0,0,0,0,0,
50.25085, 18:32:29.352,0,0,0,0,0,0,0,0,0,
50.30377, 18:32:29.405,0,0,0,0,0,0,0,0,0,
50.34941, 18:32:29.452,0,0,0,0,0,0,0,0,0,
50.41103, 18:32:29.513,0,0,0,0,0,0,0,0,0,
50.47416, 18:32:29.576,0,0,0,0,0,0,0,0,0,
50.53817, 18:32:29.643,0,0,0,0,0,0,0,0,0,
50.60969, 18:32:29.713,0,0,0,0,0,0,0,0,0,
50.67715, 18:32:29.779,0,0,0,0,0,0,0,0,0,
50.73842, 18:32:29.840,0,0,0,0,0,0,0,0,0,
50.80951, 18:32:29.913,0,0,0,0,0,0,0,0,0,
50.8776, 18:32:29.979,0,0,0,0,0,0,0,0,0,
50.87804, 18:33:28.577,0,0,0,0,0,0,0,0,0,
50.93867, 18:33:28.640,0,0,0,0,0,0,0,0,0,
51.12519, 18:33:28.831,0,0,0,0,0,0,0,0,0,
51.19287, 18:33:28.891,0,0,0,0,0,0,0,0,0,
51.24504, 18:33:28.943,0,0,0,0,0,0,0,0,0,
51.2928, 18:33:28.990,0,0,0,0,0,0,0,0,0,
51.3614, 18:33:29.065,0,0,0,0,0,0,0,0,0,
51.42365, 18:33:29.124,0,0,0,0,0,0,0,0,0,
51.47528, 18:33:29.174,0,0,0,0,0,0,0,0,0,
51.5355, 18:33:29.234,0,0,0,0,0,0,0,0,0,
51.58952, 18:33:29.287,0,0,0,0,0,0,0,0,0,
51.65146, 18:33:29.349,0,0,0,0,0,0,0,0,0,
51.73303, 18:33:29.432,0,0,0,0,0,0,0,0,0,
51.78881, 18:33:29.486,0,0,0,0,0,0,0,0,0,
51.85217, 18:33:29.551,0,0,0,0,0,0,0,0,0,
51.94466, 18:33:29.647,0,0,0,0,0,0,0,0,0,
52.02046, 18:33:29.718,0,0,0,0,0,0,0,0,0,
52.08287, 18:33:29.782,0,0,0,0,0,0,0,0,0,
52.15867, 18:33:29.857,0,0,0,0,0,0,0,0,0,
52.21423, 18:33:29.917,0,0,0,0,0,0,0,0,0,
52.31298, 18:33:30.015,0,0,0,0,0,0,0,0,0,
52.37616, 18:33:30.074,0,0,0,0,0,0,0,0,0,
52.43452, 18:33:30.133,0,0,0,0,0,0,0,0,0,
52.47955, 18:33:30.178,0,0,0,0,0,0,0,0,0,
52.52111, 18:33:30.220,0,0,0,0,0,0,0,0,0,
52.60979, 18:33:30.307,0,0,0,0,0,0,0,0,0,
52.67732, 18:33:30.377,0,0,0,0,0,0,0,0,0,
52.74034, 18:33:30.442,0,0,0,0,0,0,0,0,0,
52.80258, 18:33:30.500,0,0,0,0,0,0,0,0,0,
52.88008, 18:33:30.582,0,0,0,0,0,0,0,0,0,
52.94199, 18:33:30.641,0,0,0,0,0,0,0,0,0,
53.00219, 18:33:30.700,0,0,0,0,0,0,0,0,0,
53.07408, 18:33:30.773,0,0,0,0,0,0,0,0,0,
53.14546, 18:33:30.846,0,0,0,0,0,0,0,0,0,
53.22456, 18:33:30.924,0,0,0,0,0,0,0,0,0,
53.31055, 18:33:31.011,0,0,0,0,0,0,0,0,0,
53.39554, 18:33:31.101,0,0,0,0,0,0,0,0,0,
53.5154, 18:33:31.219,0,0,0,0,0,0,0,0,0,
53.6058, 18:33:31.306,0,0,0,0,0,0,0,0,0,
53.69086, 18:33:31.393,0,0,0,0,0,0,0,0,0,
53.7618, 18:33:31.462,0,0,0,0,0,0,0,0,0,
53.84084, 18:33:31.540,0,0,0,0,0,0,0,0,0,
53.90703, 18:33:31.607,0,0,0,0,0,0,0,0,0,
53.96386, 18:33:31.663,0,0,0,0,0,0,0,0,0,
54.03762, 18:33:31.736,0,0,0,0,0,0,0,0,0,
54.09304, 18:33:31.793,0,0,0,0,0,0,0,0,0,
54.15583, 18:33:31.856,0,0,0,0,0,0,0,0,0,
54.23452, 18:33:31.936,0,0,0,0,0,0,0,0,0,
54.29982, 18:33:31.999,0,0,0,0,0,0,0,0,0,
54.36924, 18:33:32.070,0,0,0,0,0,0,0,0,0,
54.4549, 18:33:32.154,0,0,0,0,0,0,0,0,0,
54.51402, 18:33:32.212,0,0,0,0,0,0,0,0,0,
54.58962, 18:33:32.290,0,0,0,0,0,0,0,0,0,
54.71292, 18:33:32.419,0,0,0,0,0,0,0,0,0,
54.82533, 18:33:32.526,0,0,0,0,0,0,0,0,0,
54.92136, 18:33:32.620,0,0,0,0,0,0,0,0,0,
55.0038, 18:33:32.706,0,0,0,0,0,0,0,0,0,
55.10671, 18:33:32.806,0,0,0,0,0,0,0,0,0,
55.20362, 18:33:32.907,0,0,0,0,0,0,0,0,0,
55.28456, 18:33:32.986,0,0,0,0,0,0,0,0,0,
55.34325, 18:33:33.040,0,0,0,0,0,0,0,0,0,
55.39951, 18:33:33.100,0,0,0,0,0,0,0,0,0,
55.47886, 18:33:33.181,0,0,0,0,0,0,0,0,0,
55.55947, 18:33:33.258,0,0,0,0,0,0,0,0,0,
55.64621, 18:33:33.346,0,0,0,0,0,0,0,0,0,
55.71798, 18:33:33.417,0,0,0,0,0,0,0,0,0,
55.79951, 18:33:33.502,0,0,0,0,0,0,0,0,0,
55.88099, 18:33:33.586,0,0,0,0,0,0,0,0,0,
56.00398, 18:33:33.709,0,0,0,0,0,0,0,0,0,
56.09647, 18:33:33.797,0,0,0,0,0,0,0,0,0,
56.17341, 18:33:33.871,0,0,0,0,0,0,0,0,0,
56.25671, 18:33:33.957,0,0,0,0,0,0,0,0,0,
56.34918, 18:33:34.049,0,0,0,0,0,0,0,0,0,
56.42152, 18:33:34.120,0,0,0,0,0,0,0,0,0,
56.50214, 18:33:34.202,0,0,0,0,0,0,0,0,0,
56.57621, 18:33:34.275,0,0,0,0,0,0,0,0,0,
56.66115, 18:33:34.361,0,0,0,0,0,0,0,0,0,
56.7311, 18:33:34.429,0,0,0,0,0,0,0,0,0,
56.81432, 18:33:34.513,0,0,0,0,0,0,0,0,0,
56.88452, 18:33:34.584,0,0,0,0,0,0,0,0,0,
56.96685, 18:33:34.666,0,0,0,0,0,0,0,0,0,
57.0402, 18:33:34.742,0,0,0,0,0,0,0,0,0,
57.13447, 18:33:34.839,0,0,0,0,0,0,0,0,0,
57.2413, 18:33:34.948,0,0,0,0,0,0,0,0,0,
57.31631, 18:33:35.016,0,0,0,0,0,0,0,0,0,
57.36157, 18:33:35.063,0,0,0,0,0,0,0,0,0,
57.40827, 18:33:35.106,0,0,0,0,0,0,0,0,0,
57.4698, 18:33:35.169,0,0,0,0,0,0,0,0,0,
57.52354, 18:33:35.222,0,0,0,0,0,0,0,0,0,
57.5826, 18:33:35.281,0,0,0,0,0,0,0,0,0,
57.66418, 18:33:35.364,0,0,0,0,0,0,0,0,0,
57.71933, 18:33:35.417,0,0,0,0,0,0,0,0,0,
57.7851, 18:33:35.484,0,0,0,0,0,0,0,0,0,
57.86638, 18:33:35.565,0,0,0,0,0,0,0,0,0,
57.92024, 18:33:35.619,0,0,0,0,0,0,0,0,0,
57.9873, 18:33:35.685,0,0,0,0,0,0,0,0,0,
58.06353, 18:33:35.764,0,0,0,0,0,0,0,0,0,
58.11975, 18:33:35.817,0,0,0,0,0,0,0,0,0,
58.18265, 18:33:35.882,0,0,0,0,0,0,0,0,0,
58.2669, 18:33:35.966,0,0,0,0,0,0,0,0,0,
58.32814, 18:33:36.027,0,0,0,0,0,0,0,0,0,
58.38411, 18:33:36.087,0,0,0,0,0,0,0,0,0,
58.48002, 18:33:36.183,0,0,0,0,0,0,0,0,0,
58.54258, 18:33:36.240,0,0,0,0,0,0,0,0,0,
58.59954, 18:33:36.297,0,0,0,0,0,0,0,0,0,
58.65934, 18:33:36.358,0,0,0,0,0,0,0,0,0,
58.71799, 18:33:36.417,0,0,0,0,0,0,0,0,0,
58.79846, 18:33:36.497,0,0,0,0,0,0,0,0,0,
58.85689, 18:33:36.554,0,0,0,0,0,0,0,0,0,
58.92289, 18:33:36.623,0,0,0,0,0,0,0,0,0,
59.00531, 18:33:36.705,0,0,0,0,0,0,0,0,0,
59.05851, 18:33:36.755,0,0,0,0,0,0,0,0,0,
59.12221, 18:33:36.824,0,0,0,0,0,0,0,0,0,
59.20657, 18:33:36.906,0,0,0,0,0,0,0,0,0,
59.26289, 18:33:36.962,0,0,0,0,0,0,0,0,0,
59.32426, 18:33:37.024,0,0,0,0,0,0,0,0,0,
59.40179, 18:33:37.101,0,0,0,0,0,0,0,0,0,
59.4584, 18:33:37.154,0,0,0,0,0,0,0,0,0,
59.51905, 18:33:37.218,0,0,0,0,0,0,0,0,0,
59.61281, 18:33:37.319,0,0,0,0,0,0,0,0,0,
59.69228, 18:33:37.394,0,0,0,0,0,0,0,0,0,
59.76773, 18:33:37.469,0,0,0,0,0,0,0,0,0,
59.8275, 18:33:37.525,0,0,0,0,0,0,0,0,0,
59.87225, 18:33:37.570,0,0,0,0,0,0,0,0,0,
59.93307, 18:33:37.633,0,0,0,0,0,0,0,0,0,
59.98799, 18:33:37.686,0,0,0,0,0,0,0,0,0,
60.05306, 18:33:37.750,0,0,0,0,0,0,0,0,0,
60.13558, 18:33:37.834,0,0,0,0,0,0,0,0,0,
60.19384, 18:33:37.894,0,0,0,0,0,0,0,0,0,
60.25407, 18:33:37.953,0,0,0,0,0,0,0,0,0,
60.33758, 18:33:38.037,0,0,0,0,0,0,0,0,0,
60.39102, 18:33:38.090,0,0,0,0,0,0,0,0,0,
60.45246, 18:33:38.150,0,0,0,0,0,0,0,0,0,
60.53617, 18:33:38.236,0,0,0,0,0,0,0,0,0,
60.58748, 18:33:38.285,0,0,0,0,0,0,0,0,0,
60.6511, 18:33:38.349,0,0,0,0,0,0,0,0,0,
60.73608, 18:33:38.435,0,0,0,0,0,0,0,0,0,
60.79527, 18:33:38.495,0,0,0,0,0,0,0,0,0,
60.86025, 18:33:38.570,0,0,0,0,0,0,0,0,0,
60.9508, 18:33:38.651,0,0,0,0,0,0,0,0,0,
61.01433, 18:33:38.712,0,0,0,0,0,0,0,0,0,
61.07707, 18:33:38.777,0,0,0,0,0,0,0,0,0,
61.12796, 18:33:38.826,0,0,0,0,0,0,0,0,0,
61.18505, 18:33:38.882,0,0,0,0,0,0,0,0,0,
61.26791, 18:33:38.967,0,0,0,0,0,0,0,0,0,
61.32215, 18:33:39.023,0,0,0,0,0,0,0,0,0,
61.38561, 18:33:39.083,0,0,0,0,0,0,0,0,0,
61.46725, 18:33:39.166,0,0,0,0,0,0,0,0,0,
61.52089, 18:33:39.220,0,0,0,0,0,0,0,0,0,
61.58599, 18:33:39.284,0,0,0,0,0,0,0,0,0,
61.66844, 18:33:39.370,0,0,0,0,0,0,0,0,0,
61.72163, 18:33:39.420,0,0,0,0,0,0,0,0,0,
61.78585, 18:33:39.485,0,0,0,0,0,0,0,0,0,
61.86352, 18:33:39.562,0,0,0,0,0,0,0,0,0,
61.92629, 18:33:39.626,0,0,0,0,0,0,0,0,0,
61.98262, 18:33:39.680,0,0,0,0,0,0,0,0,0,
62.06704, 18:33:39.770,0,0,0,0,0,0,0,0,0,
62.15233, 18:33:39.855,0,0,0,0,0,0,0,0,0,
62.22413, 18:33:39.925,0,0,0,0,0,0,0,0,0,
62.27493, 18:33:39.974,0,0,0,0,0,0,0,0,0,
62.32259, 18:33:40.021,0,0,0,0,0,0,0,0,0,
62.39505, 18:33:40.094,0,0,0,0,0,0,0,0,0,
62.45262, 18:33:40.151,0,0,0,0,0,0,0,0,0,
62.5144, 18:33:40.214,0,0,0,0,0,0,0,0,0,
62.60587, 18:33:40.308,0,0,0,0,0,0,0,0,0,
62.65868, 18:33:40.355,0,0,0,0,0,0,0,0,0,
62.71537, 18:33:40.415,0,0,0,0,0,0,0,0,0,
62.79894, 18:33:40.500,0,0,0,0,0,0,0,0,0,
62.85275, 18:33:40.550,0,0,0,0,0,0,0,0,0,
62.91436, 18:33:40.612,0,0,0,0,0,0,0,0,0,
62.99558, 18:33:40.695,0,0,0,0,0,0,0,0,0,
63.05477, 18:33:40.754,0,0,0,0,0,0,0,0,0,
63.11572, 18:33:40.816,0,0,0,0,0,0,0,0,0,
63.19504, 18:33:40.894,0,0,0,0,0,0,0,0,0,
63.2626, 18:33:40.965,0,0,0,0,0,0,0,0,0,
63.33066, 18:33:41.044,0,0,0,0,0,0,0,0,0,
