Elapsed_Time, System_Time, Euler_Roll, Euler_Pitch, Euler_Yaw, Gyro_Roll, Gyro_Pitch, Gyro_Yaw, Accel_x, Accel_y, Accel_z
0.0550157, 19:49:50.158,120.34,158.61,289,3.03,0.71,3.36,0.11,0.41,1.23,
0.1100516, 19:49:50.225,120.34,158.61,289,5.74,-4.44,1.24,0.31,0.63,0.55,
0.1753526, 19:49:50.275,84.37,28.37,343.44,-2.11,-1.66,-0.2,0.51,0.93,-0.35,
0.2256852, 19:49:50.343,84.8,28.49,342.54,2.05,-2.34,-0.85,0.49,0.93,-0.6,
0.2909744, 19:49:50.398,85.25,28.59,341.6,4.03,-0.47,-1.15,0.5,0.83,-0.89,
0.3459031, 19:49:50.469,85.65,28.66,340.79,9.4,-0.98,-1.49,0.4,0.87,-0.68,
0.4171654, 19:49:50.528,85.65,28.66,340.79,3.93,-0.8,-0.24,0.38,0.88,-0.43,
0.478434, 19:49:50.594,101.47,152.51,307.89,1.73,-0.5,0.25,0.45,0.86,-0.31,
0.541994, 19:49:50.652,101.91,152.53,307.07,0.37,0.27,-0.18,0.48,0.84,-0.15,
0.6003396, 19:49:50.722,102.35,152.53,306.24,0.93,-0.11,-0.43,0.49,0.89,-0.14,
0.6770324, 19:49:50.779,102.76,152.52,305.47,1.85,-0.64,-0.27,0.46,0.86,-0.19,
0.7274662, 19:49:50.846,102.76,152.52,305.47,0.07,0.31,-0.26,0.46,0.87,-0.16,
0.793898, 19:49:50.918,103.23,151.88,303.2,1.89,-0.31,-0.76,0.48,0.89,-0.17,
0.867501, 19:49:50.960,103.16,151.87,303.29,0.53,0.61,-0.54,0.48,0.87,-0.2,
0.9082192, 19:49:51.046,103.11,151.86,303.34,1.57,0,-0.55,0.46,0.87,-0.18,
0.9972404, 19:49:51.102,103.09,151.86,303.35,1.08,0.02,-0.47,0.46,0.86,-0.18,
1.050284, 19:49:51.149,103.09,151.86,303.35,1.24,0.03,-0.52,0.47,0.86,-0.2,
1.097912, 19:49:51.230,103.8,152.03,302.18,0.84,0.37,-0.5,0.47,0.87,-0.19,
1.179113, 19:49:51.274,103.81,152.04,302.16,1.28,0.3,-0.51,0.47,0.88,-0.2,
1.222766, 19:49:51.346,103.81,152.04,302.17,1.93,0.08,-0.41,0.46,0.86,-0.2,
1.294802, 19:49:51.411,103.79,152.05,302.19,1.63,0.33,-0.51,0.46,0.86,-0.21,
1.360053, 19:49:51.470,103.79,152.05,302.19,1.02,0.67,-0.58,0.46,0.85,-0.22,
1.418581, 19:49:51.525,103.79,152.05,302.19,1.39,0.46,-0.64,0.47,0.86,-0.21,
1.473507, 19:49:51.599,104.55,152.01,301.88,1.07,0.7,-0.81,0.48,0.86,-0.22,
1.547118, 19:49:51.669,104.57,152.02,301.88,1.58,0.44,-0.86,0.46,0.85,-0.22,
1.618036, 19:49:51.719,104.59,152.02,301.91,2.14,0.03,-0.82,0.42,0.83,-0.25,
1.667922, 19:49:51.797,104.6,152.03,301.95,3.79,-1.05,-2.29,0.28,0.71,-0.25,
1.744951, 19:49:51.849,104.6,152.03,301.95,3.61,-0.69,-2.49,0.55,0.8,-0.16,
1.798429, 19:49:51.912,108.52,154.39,298.46,1.77,0.4,-1.69,0.49,0.87,-0.24,
1.859447, 19:49:51.972,108.53,154.44,298.56,-1.44,2.53,-2.11,0.34,0.97,-0.37,
1.919597, 19:49:52.024,108.47,154.48,298.73,-3.14,4.07,-2.1,0.42,1,-0.33,
1.972336, 19:49:52.102,108.39,154.5,298.95,-6.16,4.45,-0.27,0.49,0.93,-0.16,
2.049495, 19:49:52.169,108.39,154.5,298.95,-2.76,2.41,0.12,0.45,0.89,-0.09,
2.117258, 19:49:52.236,98.19,154.81,319.03,-0.64,2.27,-1.17,0.41,0.87,-0.07,
2.183495, 19:49:52.294,97.84,154.75,319.66,0.26,1.85,-1.1,0.39,0.9,-0.08,
2.242126, 19:49:52.347,97.5,154.71,320.28,-0.63,1.89,0.18,0.4,0.93,-0.06,
2.294656, 19:49:52.402,97.19,154.69,320.89,0.15,1.23,1.63,0.45,0.94,-0.02,
2.349745, 19:49:52.469,97.19,154.69,320.89,1.1,0.83,1.48,0.5,0.95,-0.03,
2.417205, 19:49:52.526,93.24,153.18,327.47,2.9,0.18,-0.37,0.5,0.92,-0.08,
2.473616, 19:49:52.594,93.25,153.02,327.3,2.85,-0.43,-1.26,0.48,0.88,-0.1,
2.542502, 19:49:52.646,93.32,152.89,327.08,1.72,-0.82,-0.96,0.46,0.85,-0.1,
2.594505, 19:49:52.719,93.42,152.78,326.82,0.62,-0.98,-0.4,0.45,0.87,-0.1,
2.668117, 19:49:52.770,93.42,152.78,326.82,0.95,-1.35,-0.5,0.46,0.89,-0.11,
2.718606, 19:49:52.847,96.82,153.1,320.88,2.92,-2.05,-0.81,0.48,0.84,-0.11,
2.794801, 19:49:52.921,96.9,153.11,320.7,2.82,-1.47,-0.11,0.46,0.89,-0.11,
2.869943, 19:49:52.971,97,153.13,320.48,2.75,-2.02,0.66,0.43,0.9,-0.16,
2.919901, 19:49:53.025,97.1,153.16,320.27,0.47,-1.1,0.63,0.44,0.89,-0.18,
2.97335, 19:49:53.096,97.1,153.16,320.27,-2.17,0.69,0.12,0.33,0.94,-0.16,
3.044885, 19:49:53.150,100.91,152.55,311,-1.63,1.62,-0.48,0.19,1,-0.21,
3.099218, 19:49:53.203,100.64,152.57,311.42,0.05,0.4,0.33,0.34,0.92,-0.14,
3.151383, 19:49:53.273,100.4,152.61,311.84,0.11,0.86,0.33,0.6,0.83,-0.08,
3.22157, 19:49:53.324,100.16,152.67,312.26,0.82,1.24,-0.07,0.66,0.8,-0.09,
3.272281, 19:49:53.401,100.16,152.67,312.26,0.57,0.46,0.85,0.66,0.77,-0.12,
3.349091, 19:49:53.472,97.46,150.92,316.22,0.71,-0.54,1.66,0.57,0.82,-0.14,
3.420031, 19:49:53.524,97.46,150.72,316.03,0.92,-1.07,1.71,0.44,0.9,-0.11,
3.472787, 19:49:53.574,97.49,150.51,315.81,1.08,-0.35,0.85,0.33,0.96,-0.06,
3.521934, 19:49:53.644,97.52,150.3,315.55,3.19,0.05,-0.08,0.45,0.85,-0.14,
3.592386, 19:49:53.697,97.52,150.3,315.55,1.66,1.33,0.88,0.68,0.79,-0.16,
3.645922, 19:49:53.768,100.11,147.78,308.44,2.25,3.07,0.67,0.76,0.76,-0.07,
3.715893, 19:49:53.825,99.95,147.55,308.63,2.24,3.49,0.52,0.61,0.75,-0.13,
3.773689, 19:49:53.876,99.7,147.29,308.99,1.39,2.89,0.69,0.5,0.81,-0.16,
3.8248, 19:49:53.944,99.43,147.04,309.38,0.5,2.63,0.36,0.56,0.84,-0.13,
3.892102, 19:49:53.998,99.43,147.04,309.38,0.76,2.17,-0.53,0.64,0.86,-0.11,
3.946027, 19:49:54.068,96.89,143.58,313.63,1.57,1.28,-1.08,0.62,0.87,-0.08,
4.016101, 19:49:54.122,96.77,143.57,313.83,2.5,0.49,-1.39,0.58,0.83,-0.11,
4.070533, 19:49:54.197,96.66,143.58,314.05,2.08,0.29,-1.47,0.58,0.78,-0.13,
4.145735, 19:49:54.246,96.56,143.59,314.23,0.81,0.54,-1.48,0.55,0.79,-0.11,
4.193247, 19:49:54.319,96.56,143.59,314.23,0.18,0.6,-1.37,0.56,0.8,-0.1,
4.267407, 19:49:54.374,97.37,145.38,315.29,-0.21,0.41,-0.95,0.58,0.83,-0.1,
4.322056, 19:49:54.447,97.28,145.44,315.46,-0.16,0.02,-0.66,0.57,0.83,-0.1,
4.395989, 19:49:54.496,97.18,145.49,315.62,-0.1,-0.24,-0.79,0.57,0.84,-0.1,
4.444686, 19:49:54.569,97.07,145.53,315.8,0.3,-0.51,-1.05,0.56,0.84,-0.08,
4.517665, 19:49:54.622,97.07,145.53,315.8,0.13,-0.6,-1.11,0.56,0.85,-0.08,
4.57143, 19:49:54.694,95.71,146.44,317.89,0.31,-0.7,-1.02,0.54,0.85,-0.08,
4.642046, 19:49:54.746,95.69,146.49,317.93,0.45,-0.65,-0.89,0.54,0.84,-0.08,
4.695285, 19:49:54.827,95.68,146.55,317.96,0.6,-0.53,-0.72,0.54,0.84,-0.07,
4.774332, 19:49:54.880,95.68,146.61,317.99,0.85,-0.37,-0.61,0.53,0.85,-0.08,
4.828313, 19:49:54.944,95.68,146.61,317.99,0.88,-0.2,-0.58,0.53,0.84,-0.08,
4.892573, 19:49:54.995,95.96,147.42,317.6,0.89,-0.04,-0.59,0.53,0.84,-0.09,
4.943902, 19:49:55.049,95.98,147.44,317.56,0.71,0.15,-0.57,0.53,0.84,-0.09,
4.999216, 19:49:55.120,96,147.45,317.52,0.58,0.33,-0.57,0.54,0.84,-0.09,
5.069485, 19:49:55.173,96.03,147.46,317.48,0.87,0.46,-0.67,0.54,0.84,-0.08,
5.121235, 19:49:55.244,96.03,147.46,317.48,0.92,0.59,-0.67,0.54,0.83,-0.08,
5.192266, 19:49:55.298,95.8,147.65,317.97,0.77,0.61,-0.65,0.54,0.85,-0.08,
5.246275, 19:49:55.369,95.78,147.66,318.02,0.95,0.37,-0.66,0.54,0.85,-0.08,
5.317038, 19:49:55.439,95.77,147.67,318.05,0.78,0.32,-0.75,0.54,0.85,-0.08,
5.387098, 19:49:55.494,95.75,147.67,318.1,0.69,0.12,-0.69,0.54,0.85,-0.08,
5.442969, 19:49:55.547,95.75,147.67,318.1,0.84,-0.24,-0.56,0.53,0.85,-0.08,
5.49523, 19:49:55.623,95.44,147.91,318.8,0.7,-0.29,-0.46,0.53,0.84,-0.08,
5.571727, 19:49:55.672,95.46,147.92,318.75,0.52,-0.12,-0.55,0.53,0.85,-0.08,
5.620298, 19:49:55.725,95.47,147.92,318.72,0.63,0,-0.57,0.52,0.86,-0.08,
5.673849, 19:49:55.800,95.5,147.91,318.66,0.65,0.16,-0.56,0.52,0.85,-0.07,
5.748601, 19:49:55.850,95.5,147.91,318.66,0.85,0.21,-0.53,0.52,0.84,-0.07,
5.799371, 19:49:55.924,95.25,148.03,318.86,0.74,0.41,-0.53,0.53,0.84,-0.07,
5.873517, 19:49:55.972,95.24,148.03,318.88,0.59,0.51,-0.53,0.53,0.84,-0.06,
5.920036, 19:49:56.044,95.21,148.03,318.93,0.71,0.52,-0.52,0.54,0.86,-0.07,
5.993051, 19:49:56.097,95.17,148.03,319,1.26,0.6,-0.63,0.54,0.87,-0.06,
6.044956, 19:49:56.171,95.17,148.03,319,1.49,0.59,-0.72,0.53,0.86,-0.07,
6.119685, 19:49:56.228,94.83,148.07,319.81,1.66,0.53,-0.8,0.53,0.85,-0.08,
6.176186, 19:49:56.294,94.85,148.09,319.81,1.32,0.67,-0.9,0.53,0.84,-0.08,
6.242729, 19:49:56.347,94.87,148.1,319.8,1.56,0.59,-0.93,0.54,0.85,-0.08,
6.294731, 19:49:56.420,94.9,148.12,319.78,1.56,0.59,-0.95,0.54,0.84,-0.08,
6.369674, 19:49:56.499,94.9,148.12,319.78,1.11,0.83,-0.91,0.53,0.85,-0.09,
6.447521, 19:49:56.544,95.64,148.68,319.56,0.89,0.74,-0.6,0.51,0.86,-0.1,
6.492238, 19:49:56.597,95.64,148.69,319.6,0.47,0.73,-0.34,0.5,0.86,-0.08,
6.546091, 19:49:56.649,95.64,148.71,319.64,0.3,0.65,-0.37,0.51,0.88,-0.07,
6.597663, 19:49:56.721,95.64,148.73,319.66,1,0.22,-0.63,0.52,0.87,-0.07,
6.670361, 19:49:56.778,95.64,148.73,319.66,0.64,0.29,-0.82,0.51,0.85,-0.08,
6.726074, 19:49:56.834,94.75,148.82,321.25,0.6,0.21,-0.66,0.52,0.86,-0.08,
6.782351, 19:49:56.891,94.74,148.85,321.29,0.87,0,-0.49,0.53,0.86,-0.07,
6.841454, 19:49:56.969,94.74,148.87,321.31,0.79,0.08,-0.37,0.52,0.85,-0.08,
6.918314, 19:49:57.022,94.76,148.89,321.3,0.57,0.25,-0.35,0.52,0.86,-0.07,
6.971346, 19:49:57.096,94.76,148.89,321.3,0.68,0.26,-0.45,0.51,0.87,-0.07,
7.044045, 19:49:57.152,94.48,148.75,321.49,0.63,0.22,-0.57,0.51,0.86,-0.07,
7.101629, 19:49:57.202,94.45,148.75,321.52,0.74,0.23,-0.63,0.52,0.85,-0.06,
7.151311, 19:49:57.269,94.43,148.75,321.56,0.9,0.15,-0.56,0.52,0.86,-0.07,
7.217619, 19:49:57.323,94.4,148.76,321.6,0.76,0.21,-0.51,0.53,0.86,-0.07,
7.271804, 19:49:57.395,94.4,148.76,321.6,0.9,0.13,-0.49,0.53,0.86,-0.06,
7.34373, 19:49:57.449,94.25,148.78,321.81,0.89,0.05,-0.48,0.52,0.86,-0.06,
7.396827, 19:49:57.521,94.26,148.79,321.8,0.93,0.09,-0.74,0.52,0.84,-0.07,
7.470872, 19:49:57.571,94.27,148.78,321.77,0.53,0.23,-0.92,0.53,0.85,-0.07,
7.520396, 19:49:57.644,94.29,148.78,321.73,0.42,0.12,-0.78,0.51,0.86,-0.07,
7.592132, 19:49:57.699,94.29,148.78,321.73,0.58,-0.05,-0.57,0.51,0.87,-0.06,
7.647354, 19:49:57.768,93.97,149.15,322.45,0.5,-0.04,-0.56,0.51,0.86,-0.05,
7.716106, 19:49:57.821,93.95,149.16,322.47,0.46,0.06,-0.7,0.51,0.86,-0.06,
7.770111, 19:49:57.894,93.94,149.16,322.49,0.6,-0.08,-0.85,0.51,0.87,-0.04,
7.842609, 19:49:57.946,93.92,149.17,322.52,0.79,-0.34,-0.79,0.49,0.87,-0.06,
7.894815, 19:49:58.000,93.92,149.17,322.52,0.35,-0.18,-0.79,0.5,0.86,-0.06,
7.948654, 19:49:58.069,93.51,149.77,323.48,0.4,-0.14,-0.75,0.51,0.86,-0.05,
8.017579, 19:49:58.143,93.49,149.78,323.52,0.55,-0.17,-0.64,0.51,0.87,-0.05,
8.092627, 19:49:58.194,93.46,149.81,323.58,0.49,-0.1,-0.66,0.49,0.87,-0.06,
8.142645, 19:49:58.271,93.44,149.83,323.63,0.45,-0.08,-0.55,0.49,0.87,-0.05,
8.220269, 19:49:58.320,93.44,149.83,323.63,0.82,-0.08,-0.51,0.49,0.88,-0.04,
8.268459, 19:49:58.374,93.04,150.09,324.29,0.98,0.01,-0.51,0.5,0.87,-0.03,
8.322419, 19:49:58.444,93.04,150.09,324.29,0.76,0.24,-0.56,0.49,0.87,-0.05,
8.392922, 19:49:58.498,93.04,150.1,324.29,0.87,0.24,-0.49,0.5,0.87,-0.05,
8.446176, 19:49:58.570,93.04,150.09,324.28,0.83,0.33,-0.5,0.5,0.88,-0.03,
8.518516, 19:49:58.640,93.04,150.09,324.28,1.09,0.36,-0.62,0.5,0.87,-0.04,
8.58882, 19:49:58.693,92.99,150.1,324.35,0.9,0.45,-0.56,0.49,0.86,-0.05,
8.641696, 19:49:58.747,93,150.1,324.34,0.34,0.64,-0.49,0.49,0.86,-0.05,
8.695273, 19:49:58.820,93.01,150.11,324.34,0.55,0.65,-0.53,0.5,0.87,-0.04,
8.770226, 19:49:58.871,93.01,150.11,324.34,0.61,0.63,-0.66,0.51,0.87,-0.03,
8.819647, 19:49:58.944,93.01,150.11,324.34,0.44,0.66,-0.59,0.5,0.88,-0.03,
8.892316, 19:49:58.995,91.89,150.1,326.54,0.92,0.35,-0.42,0.5,0.89,-0.03,
8.944486, 19:49:59.069,91.85,150.11,326.62,1.27,0.24,-0.44,0.5,0.88,-0.03,
9.017188, 19:49:59.123,91.82,150.1,326.67,1.18,0.49,-0.67,0.5,0.87,-0.02,
9.071619, 19:49:59.173,91.81,150.1,326.68,1.07,0.59,-0.79,0.49,0.86,-0.04,
9.121905, 19:49:59.245,91.81,150.1,326.68,0.98,0.47,-0.68,0.5,0.87,-0.03,
9.193407, 19:49:59.319,91.81,150.1,326.68,0.91,0.54,-0.75,0.5,0.87,-0.03,
9.267103, 19:49:59.369,91.83,150.32,326.95,1.02,0.44,-0.74,0.5,0.87,-0.04,
9.317742, 19:49:59.422,91.83,150.33,326.98,1.02,0.31,-0.64,0.49,0.87,-0.03,
9.369663, 19:49:59.494,91.83,150.34,326.99,0.86,0.34,-0.69,0.49,0.87,-0.02,
9.443629, 19:49:59.547,91.84,150.36,326.99,0.88,0.21,-0.71,0.49,0.88,-0.01,
9.495557, 19:49:59.619,91.84,150.36,326.99,0.53,0.2,-0.65,0.49,0.87,-0.03,
9.567619, 19:49:59.669,91.69,150.69,327.6,0.73,-0.04,-0.47,0.49,0.88,-0.03,
9.616796, 19:49:59.744,91.66,150.7,327.64,0.82,-0.12,-0.38,0.5,0.88,-0.03,
9.693095, 19:49:59.797,91.65,150.7,327.68,0.95,-0.13,-0.35,0.49,0.87,-0.02,
9.745785, 19:49:59.868,91.64,150.7,327.68,0.84,0.04,-0.44,0.49,0.88,-0.03,
9.816447, 19:49:59.919,91.64,150.7,327.68,0.92,0.11,-0.48,0.48,0.88,-0.03,
9.867935, 19:49:59.971,91.81,150.47,327.05,0.69,0.28,-0.49,0.49,0.88,-0.02,
9.919655, 19:50:00.046,91.82,150.47,327.03,0.89,0.41,-0.6,0.49,0.87,-0.03,
9.996035, 19:50:00.097,91.81,150.47,327.06,0.82,0.53,-0.58,0.49,0.87,-0.03,
10.04524, 19:50:00.169,91.79,150.47,327.09,0.73,0.63,-0.56,0.5,0.87,-0.02,
10.1174, 19:50:00.224,91.79,150.47,327.09,0.81,0.58,-0.52,0.5,0.88,-0.02,
10.17304, 19:50:00.294,91.33,150.52,328.05,1.19,0.33,-0.49,0.5,0.88,-0.02,
10.24362, 19:50:00.346,91.31,150.52,328.1,1.21,0.35,-0.6,0.49,0.87,-0.03,
10.29462, 19:50:00.404,91.29,150.52,328.13,1.08,0.35,-0.62,0.49,0.88,-0.02,
10.35203, 19:50:00.469,91.27,150.51,328.15,1.15,0.18,-0.56,0.5,0.87,-0.02,
10.4177, 19:50:00.555,91.27,150.51,328.15,1.02,0.27,-0.55,0.49,0.87,-0.02,
10.50342, 19:50:00.594,91.62,150.55,327.6,0.82,0.18,-0.44,0.49,0.86,-0.03,
10.54401, 19:50:00.651,91.63,150.55,327.58,0.32,-0.11,-0.5,0.6,0.87,-0.12,
10.59896, 19:50:00.722,91.65,150.56,327.55,1.27,-3.9,-4.06,0.78,0.84,-0.35,
10.67112, 19:50:00.775,91.67,150.55,327.5,-1.32,-3.69,-5.77,0.61,1.01,-0.06,
10.72425, 19:50:00.844,91.67,150.55,327.5,6.6,-3.51,-4.05,0.22,1.08,0.25,
10.79274, 19:50:00.901,94.86,155.59,324,5.02,-2.71,-0.76,0.18,0.9,0.08,
10.8497, 19:50:00.969,95.33,155.95,323.18,5.05,-2.11,-0.25,0.32,0.73,-0.12,
10.91723, 19:50:01.024,95.82,156.26,322.28,1.69,0.41,-0.9,0.38,0.71,-0.19,
10.97197, 19:50:01.096,96.27,156.53,321.42,-3.21,2.49,-0.77,0.38,0.79,-0.12,
11.04603, 19:50:01.149,96.27,156.53,321.42,-3.19,1.42,-0.76,0.38,0.92,-0.11,
11.09777, 19:50:01.219,97.66,157.14,318.28,-3.11,1.73,-2.76,0.33,0.95,-0.12,
11.16777, 19:50:01.271,97.15,157.18,319.46,-2.11,2.06,-3.76,0.32,1.01,-0.11,
11.2195, 19:50:01.347,96.65,157.25,320.68,-1.45,1.62,-2.64,0.3,1.05,-0.12,
11.29478, 19:50:01.397,96.2,157.36,321.8,-2.11,1.32,0.22,0.24,0.98,-0.09,
11.34589, 19:50:01.469,96.2,157.36,321.8,-1.47,2.47,3.21,0.22,1.07,-0.13,
11.41723, 19:50:01.519,89.52,19.5,341.69,5.06,2.15,7.66,0.31,1.09,-0.02,
11.46782, 19:50:01.573,89.28,19.79,342,0.21,4.74,9.84,0.47,0.86,0.29,
11.52174, 19:50:01.644,89.04,20.14,342.2,3.27,3.72,5.34,0.58,0.69,0.19,
11.59228, 19:50:01.697,88.91,20.55,342.09,3.58,2.24,1.34,0.57,0.61,0.06,
11.64603, 19:50:01.746,88.91,20.55,342.09,2.6,1.11,-1.88,0.61,0.6,-0.01,
11.69543, 19:50:01.809,88.72,32.91,329.08,0.34,0.71,-2.86,0.6,0.76,0.01,
11.75754, 19:50:01.872,88.83,32.87,328.95,-0.6,0.27,-2.21,0.57,0.93,-0.02,
11.82064, 19:50:01.944,88.96,32.8,328.81,-1.5,0.91,-1.66,0.49,0.93,0.04,
11.89318, 19:50:02.022,89.08,32.71,328.71,-2.73,1.38,-1.79,0.48,0.93,0.05,
11.97012, 19:50:02.069,89.08,32.71,328.71,-1.87,1.18,-2.13,0.48,0.88,0.1,
12.01787, 19:50:02.120,83.79,29.23,341.02,-0.17,0.48,-1.88,0.49,0.89,0.11,
12.0693, 19:50:02.194,83.58,29.09,341.54,3.44,-1.31,-1.47,0.5,0.87,0.09,
12.14232, 19:50:02.253,83.41,28.95,341.97,0.28,-0.37,-0.93,0.49,0.84,0.03,
12.20128, 19:50:02.304,83.27,28.81,342.36,-0.38,-0.36,-0.88,0.46,0.89,0.11,
12.25255, 19:50:02.354,83.27,28.81,342.36,0.7,-1.17,-0.87,0.44,0.92,0.14,
12.3028, 19:50:02.419,83.81,27.52,343.66,0.24,-1.44,-0.5,0.44,0.91,0.1,
12.36844, 19:50:02.484,83.86,27.5,343.66,-0.02,-1.21,-0.43,0.44,0.89,0.1,
12.43283, 19:50:02.544,83.92,27.48,343.63,0.76,-0.95,-0.54,0.44,0.89,0.08,
12.49273, 19:50:02.600,83.97,27.47,343.63,-1.18,0.2,-0.16,0.44,0.88,0.09,
12.54913, 19:50:02.668,83.97,27.47,343.63,-0.24,-0.06,0.13,0.45,0.88,0.11,
12.61647, 19:50:02.722,82.84,27.83,347.02,-0.27,0.13,0.19,0.46,0.86,0.12,
12.6698, 19:50:02.777,82.75,27.88,347.18,-0.51,0.5,0.02,0.48,0.87,0.14,
12.72508, 19:50:02.844,82.63,27.94,347.39,1.07,0.11,-0.34,0.48,0.89,0.13,
12.79309, 19:50:02.898,82.49,28.01,347.64,1.37,0.25,-0.52,0.47,0.88,0.13,
12.84816, 19:50:02.968,82.49,28.01,347.64,1.14,0.59,-0.51,0.47,0.88,0.13,
12.91759, 19:50:03.019,81.75,28.59,348.63,0.79,0.87,-0.37,0.47,0.87,0.14,
12.96777, 19:50:03.115,81.74,28.59,348.62,-0.79,1.69,-0.22,0.48,0.86,0.13,
13.06406, 19:50:03.133,81.73,28.58,348.61,0.08,1.27,-0.23,0.49,0.87,0.15,
13.08229, 19:50:03.194,81.71,28.58,348.62,0.55,1.27,-0.5,0.48,0.86,0.17,
13.14288, 19:50:03.268,81.71,28.58,348.62,0.66,1.15,-0.44,0.49,0.88,0.17,
13.21749, 19:50:03.319,79.07,28.64,352.24,1,0.79,-0.44,0.48,0.86,0.17,
13.26732, 19:50:03.369,78.99,28.62,352.32,1.22,0.42,-0.4,0.49,0.87,0.17,
13.31836, 19:50:03.448,78.93,28.62,352.39,1.77,0.34,0.58,0.45,0.93,0.09,
13.39627, 19:50:03.496,78.87,28.63,352.43,4.82,-1.29,2.63,0.41,0.94,0.17,
13.4454, 19:50:03.549,78.87,28.63,352.43,2.73,-0.84,1.99,0.45,0.86,0.16,
13.49785, 19:50:03.601,82.11,30.99,343.46,0.79,1.66,-1.21,0.59,0.79,0.14,
13.54971, 19:50:03.672,82.21,31.12,343.11,2.85,1.74,-1.78,0.59,0.75,0.12,
13.61997, 19:50:03.721,82.27,31.21,342.9,1.21,1.24,-0.82,0.59,0.8,0.13,
13.66919, 19:50:03.794,82.27,31.25,342.81,0.62,0.44,-0.2,0.55,0.79,0.12,
13.74343, 19:50:03.848,82.27,31.25,342.81,-1.85,1.03,-1.24,0.5,0.72,0.11,
13.79628, 19:50:03.899,81.15,31.02,343.75,-1.53,1.41,-1.98,0.51,0.92,0.12,
13.84918, 19:50:03.973,80.84,30.93,344.39,0.8,-0.17,-1.51,0.48,0.99,0.21,
13.92134, 19:50:04.022,80.49,30.81,345.12,1.04,-1.1,-0.95,0.51,0.94,0.21,
13.96989, 19:50:04.072,80.12,30.65,345.91,2.12,-1.16,-1.54,0.5,0.86,0.15,
14.02015, 19:50:04.142,80.12,30.65,345.91,2.39,-0.84,-1.72,0.47,0.83,0.12,
14.09105, 19:50:04.196,80.94,28.56,347.88,1.47,-0.37,-1.22,0.44,0.84,0.11,
14.146, 19:50:04.269,81.12,28.49,347.68,0.79,-0.13,-0.73,0.44,0.85,0.13,
14.21808, 19:50:04.322,81.29,28.42,347.49,-0.08,0.34,-0.65,0.45,0.86,0.12,
14.26989, 19:50:04.396,81.44,28.35,347.33,-0.06,0.41,-0.46,0.46,0.88,0.15,
14.3454, 19:50:04.469,81.44,28.35,347.33,0.01,0.18,-0.35,0.48,0.89,0.15,
14.41778, 19:50:04.496,80.83,27.97,349.4,1.08,-0.07,-0.57,0.48,0.88,0.14,
14.44521, 19:50:04.569,80.74,27.99,349.56,0.98,0.12,-0.66,0.46,0.87,0.14,
14.51798, 19:50:04.622,80.67,28,349.7,1.02,0.32,-0.72,0.45,0.87,0.13,
14.57067, 19:50:04.694,80.62,28.01,349.8,0.66,0.5,-0.56,0.46,0.86,0.14,
14.64268, 19:50:04.746,80.62,28.01,349.8,0.76,0.57,-0.46,0.46,0.87,0.14,
14.69368, 19:50:04.796,80.61,27.83,350.01,0.66,0.47,-0.4,0.46,0.87,0.15,
14.74565, 19:50:04.869,80.58,27.83,350.05,0.71,0.44,-0.55,0.47,0.88,0.15,
14.81826, 19:50:04.918,80.54,27.83,350.1,1.05,0.27,-0.61,0.47,0.89,0.16,
14.86633, 19:50:04.969,80.51,27.84,350.14,0.64,0.31,-0.55,0.47,0.87,0.14,
14.9181, 19:50:05.041,80.51,27.84,350.14,1.24,-0.06,-0.37,0.47,0.87,0.15,
14.98907, 19:50:05.094,80.37,27.82,350.36,1.19,-0.09,-0.27,0.47,0.87,0.15,
15.04291, 19:50:05.149,80.41,27.84,350.27,0.76,-0.08,-0.14,0.47,0.86,0.13,
15.09737, 19:50:05.219,80.43,27.87,350.22,0.21,0.18,-0.24,0.47,0.88,0.14,
15.16814, 19:50:05.271,80.46,27.89,350.14,0.78,0.1,-0.53,0.47,0.89,0.17,
15.21967, 19:50:05.344,80.46,27.89,350.14,1,0.06,-0.74,0.46,0.88,0.15,
15.29304, 19:50:05.398,80.24,28.3,350.52,0.97,0.15,-0.89,0.47,0.86,0.14,
15.34791, 19:50:05.448,80.25,28.27,350.53,0.79,0.29,-0.8,0.48,0.86,0.15,
15.39617, 19:50:05.501,80.26,28.25,350.56,0.81,0.24,-0.63,0.47,0.88,0.15,
15.44998, 19:50:05.569,80.26,28.22,350.58,0.83,0.21,-0.49,0.46,0.88,0.15,
15.51814, 19:50:05.612,80.26,28.22,350.58,1.19,0.15,-0.5,0.46,0.88,0.16,
15.55998, 19:50:05.679,80.2,27.95,351.09,2,-0.2,-0.63,0.46,0.88,0.16,
15.6281, 19:50:05.725,80.24,27.96,351.01,1.56,0.06,-0.65,0.46,0.87,0.13,
15.67378, 19:50:05.797,80.3,27.95,350.9,1.24,0.31,-0.66,0.46,0.88,0.14,
15.745, 19:50:05.848,80.37,27.95,350.77,1.33,0.29,-0.51,0.46,0.87,0.12,
15.79647, 19:50:05.906,80.37,27.95,350.77,0.61,0.53,-0.27,0.47,0.87,0.14,
15.85408, 19:50:05.975,81.42,27.84,348.74,0.27,0.62,-0.41,0.48,0.88,0.14,
15.93011, 19:50:06.030,81.39,27.87,348.76,0.92,0.31,-0.53,0.47,0.87,0.13,
15.97969, 19:50:06.094,81.36,27.89,348.78,0.68,0.34,-0.6,0.47,0.86,0.13,
16.04191, 19:50:06.170,81.34,27.9,348.82,0.33,0.34,-0.55,0.47,0.87,0.13,
16.11853, 19:50:06.221,81.34,27.9,348.82,0.42,0.29,-0.56,0.46,0.87,0.15,
16.17046, 19:50:06.274,80.59,27.94,350.19,-0.73,0.79,-0.6,0.47,0.87,0.15,
16.22273, 19:50:06.321,80.53,27.94,350.3,-1.69,1.18,-0.66,0.46,0.88,0.17,
16.27068, 19:50:06.380,80.47,27.93,350.43,-0.43,0.63,-0.69,0.46,0.86,0.19,
16.32912, 19:50:06.447,80.38,27.92,350.61,0.14,0.4,-0.64,0.47,0.85,0.2,
16.39514, 19:50:06.496,80.38,27.92,350.61,0.81,0.13,-0.67,0.47,0.86,0.19,
16.445, 19:50:06.554,77.17,27.53,357.01,0.66,0.14,-0.66,0.46,0.86,0.2,
16.50352, 19:50:06.619,77.18,27.52,357.03,0.46,0.13,-0.76,0.46,0.87,0.2,
16.56774, 19:50:06.671,77.17,27.52,357.06,0.15,0.14,-0.77,0.46,0.86,0.21,
16.61993, 19:50:06.723,77.16,27.52,357.1,0.29,0.11,-0.79,0.46,0.87,0.2,
16.67164, 19:50:06.799,77.16,27.52,357.1,-0.29,0.38,-0.69,0.46,0.87,0.2,
16.74758, 19:50:06.849,76.2,27.15,359.93,0.62,0.05,-0.56,0.45,0.86,0.23,
16.79782, 19:50:06.919,76.09,27.14,0.17,0.51,0.18,-0.55,0.44,0.85,0.23,
16.86772, 19:50:06.962,75.96,27.12,0.44,0.6,0.2,-0.66,0.45,0.86,0.22,
16.9111, 19:50:07.019,75.83,27.12,0.7,0.44,0.24,-0.63,0.45,0.86,0.23,
16.96774, 19:50:07.094,75.83,27.12,0.7,0.47,0.31,-0.54,0.45,0.87,0.24,
17.04309, 19:50:07.144,75.08,27.01,2.62,0.75,0.31,-0.48,0.46,0.86,0.24,
17.09224, 19:50:07.194,75.04,27.01,2.69,0.58,0.37,-0.42,0.45,0.86,0.24,
17.14243, 19:50:07.247,74.99,27.01,2.78,0.7,0.31,-0.38,0.46,0.86,0.24,
17.19496, 19:50:07.319,74.95,27,2.85,0.91,0.12,-0.4,0.46,0.86,0.24,
17.26799, 19:50:07.369,74.95,27,2.85,1.16,0.06,-0.5,0.46,0.86,0.23,
17.31806, 19:50:07.428,74.63,27.22,3.24,1.43,0.05,-0.56,0.46,0.88,0.2,
17.37696, 19:50:07.475,74.66,27.22,3.18,3.12,-0.9,-0.46,0.48,0.89,0.22,
17.42385, 19:50:07.544,74.71,27.23,3.11,1.31,-1.71,-1.49,0.49,0.7,-0.01,
17.49289, 19:50:07.606,74.75,27.23,3.04,-2.63,0,-4.17,0.53,1,-0.04,
17.55528, 19:50:07.669,74.75,27.23,3.04,0.8,-1.91,-2.63,0.45,1.27,-0.04,
17.61861, 19:50:07.719,77.27,25.3,4.11,3.74,-2.66,0.87,0.44,1.01,-0.1,
17.66741, 19:50:07.773,77.58,25.22,3.87,0.28,-0.19,0.95,0.44,0.97,-0.23,
17.72245, 19:50:07.823,77.87,25.21,3.56,5.86,-3.11,0.39,0.44,0.77,-0.02,
17.77111, 19:50:07.896,78.14,25.24,3.21,-8.58,3.44,-0.73,0.4,0.75,0.33,
17.84571, 19:50:07.947,78.14,25.24,3.21,-5.83,3.34,-2.26,0.54,0.65,0.63,
17.89548, 19:50:07.998,77.18,26.6,6.58,-2.56,1.21,-3.15,0.43,0.55,0.92,
17.94637, 19:50:08.072,76.23,26.47,8.61,8.41,-5.53,-7.05,0.17,0.64,0.69,
18.02167, 19:50:08.121,75.23,26.32,10.65,0.24,-3.58,-6.79,0.24,0.55,0.52,
18.07094, 19:50:08.176,74.21,26.16,12.64,7.66,-2.43,-0.07,0.53,1.07,0.21,
18.12494, 19:50:08.248,74.21,26.16,12.64,10.92,-1.27,3.2,0.45,1.09,0.33,
18.19607, 19:50:08.298,79.97,22.52,10.63,5.44,0.49,3.11,0.49,1.19,0.05,
18.24692, 19:50:08.353,80.97,22.84,7.23,-3.7,2.4,2,0.47,1,-0.11,
18.30177, 19:50:08.419,82,23.16,3.62,2.35,-1.03,-1.77,0.51,0.97,-0.04,
18.36782, 19:50:08.481,82.99,23.49,0.07,1.91,-0.08,-3.83,0.57,0.8,0.01,
18.43087, 19:50:08.540,82.99,23.49,0.07,1.89,2.05,-4.2,0.53,0.78,0.04,
18.49045, 19:50:08.596,84.97,23.74,352.48,0.52,3.52,-3.48,0.38,0.84,0.15,
18.54532, 19:50:08.641,84.94,23.51,352.64,-0.98,3.18,-1.23,0.27,0.92,0.15,
18.5902, 19:50:08.722,84.87,23.26,352.94,-1.58,1.68,0.47,0.07,0.94,0.21,
18.66983, 19:50:08.771,84.74,23.01,353.36,2.54,-3.68,1.45,0.12,0.98,0.04,
18.72025, 19:50:08.824,84.74,23.01,353.36,-1.6,-2.78,2.44,0.23,0.96,0.04,
18.7726, 19:50:08.886,82.23,22.03,1.52,-1.25,-3.19,1.51,0.28,0.94,0.04,
18.83489, 19:50:08.948,82.11,22.23,2.02,-0.31,-2.85,0.11,0.25,1,0.12,
18.89627, 19:50:09.002,81.99,22.43,2.55,0.79,-2.15,-0.19,0.22,0.97,0.1,
18.9518, 19:50:09.053,81.89,22.63,3.1,0.58,-0.4,-0.39,0.28,0.96,0.11,
19.00115, 19:50:09.119,81.89,22.63,3.1,1.98,1.16,-0.53,0.34,0.94,0.11,
19.06737, 19:50:09.171,82.74,22.96,8.22,2.47,2.63,-0.05,0.37,0.88,0.1,
19.12141, 19:50:09.225,82.8,22.93,7.72,2.92,3.36,-0.21,0.36,0.89,0.13,
19.17484, 19:50:09.294,82.86,22.91,7.19,2.18,3.84,-0.14,0.39,0.86,0.13,
19.24284, 19:50:09.347,82.9,22.9,6.67,2.24,3.69,0.15,0.44,0.86,0.13,
19.29544, 19:50:09.397,82.9,22.9,6.67,1.98,3.25,0.38,0.49,0.89,0.11,
19.34558, 19:50:09.450,82.95,23.47,354.94,0.95,3.08,0.24,0.5,0.91,0.16,
19.39873, 19:50:09.521,82.84,23.57,354.85,1.76,2.3,-0.53,0.48,0.92,0.14,
19.4705, 19:50:09.569,82.7,23.67,354.85,1.37,2.22,-1.11,0.47,0.91,0.12,
19.51895, 19:50:09.644,82.56,23.77,354.85,0.04,2.34,-0.55,0.49,0.87,0.12,
19.59243, 19:50:09.694,279.4,43.76,276.33,0.27,1.39,0.18,0.48,0.84,0.16,
19.64273, 19:50:09.748,279.4,43.76,276.33,0.98,0.54,0.08,0.46,0.9,0.18,
19.69625, 19:50:09.819,80.26,24.66,354.76,2.11,0.07,-0.48,0.44,0.9,0.13,
19.76738, 19:50:09.869,80.26,24.72,354.68,0.92,1.07,-0.71,0.4,0.89,0.13,
19.81952, 19:50:09.921,80.3,24.77,354.54,1.54,0.99,-0.85,0.4,0.91,0.13,
19.87011, 19:50:09.972,80.38,24.8,354.34,0.23,2.15,-0.79,0.4,0.9,0.16,
19.92101, 19:50:10.048,80.38,24.8,354.34,1.82,1.81,-0.35,0.4,0.9,0.17,
19.99757, 19:50:10.099,80.53,24.17,353.06,2.24,2.25,-0.02,0.37,0.89,0.17,
20.04728, 19:50:10.161,80.49,24.17,353.01,2.24,2.27,0.08,0.37,0.91,0.15,
20.10849, 19:50:10.220,80.43,24.17,352.99,2.73,1.81,-0.01,0.35,0.92,0.18,
20.16737, 19:50:10.272,80.37,24.17,352.95,0.39,2.73,0.17,0.27,0.99,0.2,
20.22039, 19:50:10.344,80.37,24.17,352.95,0.89,3.18,0.47,0.04,1.11,0.2,
20.29256, 19:50:10.394,79.8,23.48,351.34,-2.24,1.61,-1.17,-0.31,1.2,0.24,
20.34237, 19:50:10.445,79.68,23.25,351.67,3.79,0.02,-2.44,-0.12,0.91,0.46,
20.39227, 19:50:10.520,79.5,22.99,352.07,2.31,6.58,-0.66,0.71,0.6,0.49,
20.46763, 19:50:10.570,79.29,22.71,352.5,2.9,2.11,0.36,0.91,0.6,0.31,
20.51786, 19:50:10.620,79.29,22.71,352.5,0.44,4.03,2.47,0.85,0.73,-0.03,
20.56722, 19:50:10.694,75.92,22.63,354.21,4.34,2.02,3.68,0.95,0.79,-0.03,
20.64209, 19:50:10.744,75.8,23.08,353.71,1.95,5.34,2.15,0.88,0.8,-0.04,
20.6925, 19:50:10.798,75.72,23.57,353.11,5.27,5.85,0.15,0.67,0.85,-0.02,
20.74588, 19:50:10.851,75.74,24.09,352.39,1.73,6.79,-0.09,0.53,0.89,0.07,
20.79995, 19:50:10.919,75.74,24.09,352.39,2.83,4.38,0.03,0.49,0.89,0.1,
20.86824, 19:50:10.969,76.92,28.26,341.71,1.28,1.89,-0.4,0.54,0.87,0.08,
20.91763, 19:50:11.044,76.96,28.25,341.58,0,0.23,-0.87,0.59,0.84,0.07,
20.99263, 19:50:11.096,77,28.26,341.44,0.57,-2.28,-0.86,0.65,0.78,0.01,
21.04399, 19:50:11.147,77.02,28.29,341.32,-0.81,-4.12,-1.54,0.87,0.71,-0.01,
21.09495, 19:50:11.221,77.02,28.29,341.32,-0.63,-3.92,-2.53,0.98,0.72,0.07,
21.16868, 19:50:11.277,79.59,30.61,338.51,5.23,-1.35,-1.9,0.92,0.76,0.13,
21.22649, 19:50:11.349,79.75,30.73,338.36,-0.77,8.98,0.71,0.73,0.91,0.35,
21.29737, 19:50:11.399,79.97,30.85,338.14,6.86,8.24,11.6,0.23,1.03,0.53,
21.34743, 19:50:11.445,80.28,30.96,337.82,11.11,-5.39,25.36,-0.02,1.44,0.18,
21.3939, 19:50:11.519,80.28,30.96,337.82,-24.73,1.65,32.47,0.19,0.89,0.17,
21.46716, 19:50:11.576,70.66,53.91,315.77,-5.98,-12.73,31.41,0.86,0.4,0.33,
21.52501, 19:50:11.644,67.74,56.2,314.6,-7.95,-5.06,31.69,1.06,-0.05,0.27,
21.59406, 19:50:11.719,65.16,58.57,313.03,0.52,-6.2,30.56,0.91,-0.44,0.35,
21.66764, 19:50:11.769,63.16,61.02,311.01,5.33,-3.11,26.76,1.05,-0.13,0.01,
21.71791, 19:50:11.844,63.16,61.02,311.01,-2.56,0.46,18.15,0.85,-0.4,-0.13,
21.79319, 19:50:11.894,275.02,50.29,235.58,-1.42,-1.07,8.35,0.73,-0.6,-0.13,
21.84235, 19:50:11.952,274.49,49.07,233.94,0.31,-2.34,1.64,0.71,-0.77,-0.07,
21.90007, 19:50:12.022,273.96,47.99,232.37,1.1,-3.38,-1.71,0.69,-0.8,-0.1,
21.97001, 19:50:12.080,273.45,47.03,230.92,1.78,-2.55,-2.38,0.7,-0.84,-0.07,
22.02848, 19:50:12.147,273.45,47.03,230.92,1.66,-0.36,-2.04,0.69,-0.77,-0.04,
22.09472, 19:50:12.218,266.48,136.5,219.97,1.56,0.67,-1.43,0.68,-0.71,-0.05,
22.16604, 19:50:12.294,266.52,136.4,220.14,0.98,1.12,-0.92,0.71,-0.71,-0.03,
22.24227, 19:50:12.344,266.6,136.3,220.32,0.91,1.02,-0.57,0.74,-0.73,-0.03,
22.29263, 19:50:12.397,266.67,136.21,220.5,0.92,1.09,-0.39,0.77,-0.74,0,
22.35797, 19:50:12.472,266.67,136.21,220.5,0.89,1.02,-0.31,0.79,-0.74,0,
22.41987, 19:50:12.544,268.59,135.44,223.1,1.31,0.47,-0.37,0.77,-0.73,0.01,
22.49318, 19:50:12.598,268.66,135.44,223.17,1.12,-0.15,-0.44,0.75,-0.72,-0.01,
22.54638, 19:50:12.669,268.72,135.43,223.24,1.13,-0.42,-0.76,0.74,-0.73,-0.01,
22.61731, 19:50:12.724,268.76,135.43,223.28,1.16,-0.59,-1.66,0.73,-0.75,-0.02,
22.67237, 19:50:12.797,268.76,135.43,223.28,0.44,-1.04,-4.13,0.72,-0.76,-0.05,
22.74502, 19:50:12.854,268.76,135.43,223.28,0.36,-3.21,-11.16,0.79,-0.67,-0.12,
22.80211, 19:50:12.921,265.83,130.06,226.32,-3.89,-4.44,-21.02,0.74,-0.56,-0.11,
22.87, 19:50:12.994,265.22,129.1,226.87,-9.89,-3.84,-30.41,0.82,-0.42,0,
22.9422, 19:50:13.075,264.48,128.03,227.46,-10.73,-0.92,-38.85,0.77,-0.26,-0.15,
23.02455, 19:50:13.145,263.62,126.86,228.11,-24.84,15.78,-41.88,0.57,0.19,-0.15,
23.09291, 19:50:13.193,263.62,126.86,228.11,-26.16,24.81,-36.87,0.29,0.68,0.39,
23.14157, 19:50:13.249,71.45,41.62,2.19,-9.21,11.3,-22.92,0.33,1.23,0.7,
23.19738, 19:50:13.321,68.66,38.2,10.12,-13.77,9.09,-10.93,0.25,1.2,0.7,
23.2704, 19:50:13.394,66.23,34.92,16.36,-10.51,4.8,-2.18,0.28,0.82,0.87,
23.3424, 19:50:13.432,64.18,31.82,21.35,-18.4,4.7,2.73,0.28,0.8,0.89,
23.37952, 19:50:13.500,64.18,31.82,21.35,-8.08,-1.02,10.53,0.12,0.58,1.23,
23.44848, 19:50:13.569,31.92,10.87,49.05,89.53,-47.58,0.89,0.17,0.79,1.21,
23.51796, 19:50:13.647,32.49,11.97,48.23,177.1,-79.47,-8.21,0.43,2,-1.28,
23.59455, 19:50:13.693,34.24,13.46,47.31,35.88,-14.27,-0.66,-0.33,-1.08,-0.35,
23.6412, 19:50:13.747,37.29,15.29,46.22,-13.6,4.55,-2.24,-0.04,-0.16,-0.77,
23.69481, 19:50:13.822,37.29,15.29,46.22,-41.73,19.83,-2.76,0.08,0.1,-1.14,
23.76979, 19:50:13.871,170.79,177.27,263.44,-68.99,30.03,0.18,0.18,0.25,-0.68,
23.82063, 19:50:13.945,166.46,175.3,263.9,-55.26,22.57,1.82,0.35,0.88,-0.09,
23.89273, 19:50:14.007,161.33,173.05,264.52,-11.29,5.91,0.2,0.34,0.77,0.14,
23.95548, 19:50:14.075,155.63,170.66,265.38,-15.1,6.96,0.69,0.4,0.93,0.23,
24.02286, 19:50:14.130,155.63,170.66,265.38,-13.66,6.42,0.5,0.39,0.81,0.33,
24.07832, 19:50:14.194,155.63,170.66,265.38,-0.84,0.76,0.7,0.43,0.79,0.45,
24.14216, 19:50:14.247,61.78,23.02,33.11,-2,1.85,-0.44,0.41,0.85,0.48,
24.19516, 19:50:14.319,61.62,23.17,33.34,7.08,-2.86,-0.62,0.41,0.94,0.48,
24.26745, 19:50:14.369,61.58,23.17,33.17,50.41,-20.35,-1.68,0.57,1.12,0.47,
24.3172, 19:50:14.443,61.5,23.17,33.18,144.47,-62.95,-7.97,0.1,0.65,-0.94,
24.39241, 19:50:14.497,61.5,23.17,33.18,3,-6.72,-2.29,-0.07,-0.19,-1.01,
24.44461, 19:50:14.559,167.04,177.47,264.64,-1.59,-1.32,-3.51,0.15,0.26,-0.95,
24.50703, 19:50:14.635,167.49,178.06,264.69,-78.03,35.67,0.08,-0.04,0.23,-0.92,
24.58253, 19:50:14.695,168.3,178.77,264.79,-0.6,0.53,2.5,0.15,0.51,-0.17,
24.64211, 19:50:14.746,169.45,179.59,264.94,8.03,-1.41,0.7,0.43,1.05,-0.62,
24.69466, 19:50:14.818,169.45,179.59,264.94,18.79,-6.73,-0.18,0.22,0.64,-0.7,
24.76653, 19:50:14.876,132.94,164.28,274.14,11.28,-3.4,-0.02,0.24,0.63,-0.83,
24.82519, 19:50:14.945,134.68,164.72,273.38,6.32,-1.54,0.06,0.18,0.52,-0.81,
24.89316, 19:50:15.032,136.42,165.17,272.67,-0.56,1.34,-0.07,0.22,0.52,-0.82,
24.97996, 19:50:15.071,138.06,165.6,272.06,-4.66,3,0.05,0.24,0.51,-0.84,
25.01896, 19:50:15.123,138.06,165.6,272.06,-15.21,7.04,0.61,0.24,0.46,-0.81,
25.07118, 19:50:15.199,138.26,163.88,271.35,-101.13,41.79,0.43,0.03,0.08,-0.17,
25.14771, 19:50:15.275,136,163.15,272.16,-120.17,49.11,11.93,0.27,0.71,0.81,
25.22403, 19:50:15.320,132.79,162.21,273.52,16.12,-6.29,5.44,0.14,0.14,1.6,
25.26833, 19:50:15.394,128.36,161.02,275.78,31.6,-15.95,-3.02,0.17,0.29,1.28,
25.34242, 19:50:15.450,128.36,161.02,275.78,64.53,-29.88,-3.23,0.51,0.74,0.5,
25.39817, 19:50:15.519,50.07,26.14,35.3,46.79,-22.07,-2.27,0.5,0.87,0.22,
25.46722, 19:50:15.572,56.19,27.45,31.31,-16.54,9.14,-0.47,0.49,0.77,-0.03,
25.52048, 19:50:15.644,62.3,28.54,25.94,3.79,-0.05,-1.05,0.43,0.74,0.1,
25.59289, 19:50:15.695,68.35,29.38,18.68,1.48,0.43,-1.13,0.45,0.95,0.05,
25.64367, 19:50:15.749,68.35,29.38,18.68,2.59,-0.45,-1.31,0.44,0.82,0.07,
25.69758, 19:50:15.818,84.29,29.02,346.49,12.24,-5.09,-1.21,0.59,0.98,0,
25.7657, 19:50:15.872,84.63,28.97,345.67,6.08,-0.84,-1.23,0.56,0.95,-0.14,
25.81961, 19:50:15.944,85.18,28.92,344.24,10.62,-4.15,-0.72,0.4,0.78,-0.09,
25.8936, 19:50:15.994,85.96,28.89,342.21,1.8,-0.22,-0.6,0.4,0.88,-0.26,
25.94217, 19:50:16.068,85.96,28.89,342.21,-2.02,1.53,-0.7,0.45,0.81,-0.2,
26.01578, 19:50:16.130,101.18,152.2,304.96,-1.02,0.98,-1.32,0.48,0.86,-0.18,
26.07872, 19:50:16.178,100.96,152.19,305.4,0.81,0.05,-1.39,0.5,0.86,-0.18,
26.12732, 19:50:16.248,100.76,152.2,305.83,5.1,-1.95,-2.11,0.49,0.88,-0.16,
26.1965, 19:50:16.319,100.57,152.22,306.23,9.17,-4.39,-3.48,0.42,0.89,-0.18,
26.26753, 19:50:16.373,100.57,152.22,306.23,0.3,0.22,-3.42,0.46,1.02,-0.26,
26.32129, 19:50:16.444,108.68,156.94,293.54,-12.25,6.37,-0.4,0.2,0.63,-0.23,
26.39289, 19:50:16.499,108.22,157.08,294.38,-129.45,62.27,-1.01,0.29,0.28,-2,
26.44758, 19:50:16.579,107.36,157.11,295.91,-90.96,34.11,1.51,-0.06,-0.3,1.64,
26.52795, 19:50:16.644,106.21,157.06,298,28.21,-12.18,-3.04,-0.43,-0.97,1.74,
26.59253, 19:50:16.701,106.21,157.06,298,9.59,-5,-1.95,0.01,-0.18,1.22,
26.64875, 19:50:16.770,351.73,359.81,46.11,20.99,-9.57,-1.14,0.1,0.01,1.08,
26.71718, 19:50:16.820,352.79,0.36,46.28,15.95,-7.75,1.09,0.15,0.15,1,
26.76822, 19:50:16.873,354.16,1.02,46.46,19.26,-9.07,0.31,0.16,0.25,0.99,
26.82129, 19:50:16.944,355.74,1.76,46.61,36.43,-16.32,0.07,0.26,0.35,0.7,
26.89105, 19:50:16.997,355.74,1.76,46.61,21.17,-9.61,0.22,0.36,0.63,0.55,
26.94434, 19:50:17.058,45.2,23.56,35.8,15.92,-6.11,-0.32,0.44,0.71,0.38,
27.00641, 19:50:17.140,46.92,24.1,34.82,3.44,0.02,-0.49,0.47,0.8,0.47,
27.08854, 19:50:17.195,48.61,24.59,33.76,7.56,-1.98,-1.53,0.46,0.79,0.39,
27.14387, 19:50:17.249,50.29,25.04,32.62,4.47,-0.44,-1.95,0.54,0.89,0.38,
27.19767, 19:50:17.293,50.29,25.04,32.62,2.82,-0.24,-1.34,0.47,0.88,0.37,
27.24125, 19:50:17.354,65.01,26.34,19.24,8.78,-3.56,-0.73,0.54,0.99,0.27,
27.30248, 19:50:17.401,65.29,26.31,18.94,7.8,-3.31,-0.76,0.58,1.11,0.23,
27.34874, 19:50:17.477,65.69,26.32,18.49,9.07,-3.76,-1.43,0.53,1.01,0.2,
27.42541, 19:50:17.528,66.23,26.35,17.88,12.76,-5.82,-1.45,0.49,0.88,0.2,
27.47566, 19:50:17.597,66.23,26.35,17.88,7.81,-3.53,-0.89,0.46,0.85,0.02,
27.54547, 19:50:17.654,89.84,27.11,333.31,8.68,-3.24,-0.37,0.4,0.75,-0.02,
27.60218, 19:50:17.719,90.42,152.91,331.83,5.76,-1.55,0.02,0.39,0.72,-0.16,
27.66742, 19:50:17.774,90.95,152.91,330.5,4.79,-1.2,0.19,0.36,0.72,-0.1,
27.72236, 19:50:17.844,91.5,152.9,329.11,5.73,-2.35,-0.02,0.38,0.78,-0.08,
27.79293, 19:50:17.903,91.5,152.9,329.11,6.76,-3.22,-0.24,0.38,0.71,-0.14,
27.85082, 19:50:17.972,105.91,152.79,298.02,7.2,-3.02,-0.13,0.33,0.67,-0.23,
27.92076, 19:50:18.022,106.58,152.84,296.87,-62.85,26.15,2.33,-0.1,-0.34,-0.59,
27.9702, 19:50:18.096,107.29,152.89,295.7,-108.73,61.58,6.88,-0.71,-1.65,-0.56,
28.15804, 19:50:18.217,108.03,152.95,294.47,-89.76,42.6,3.9,-0.6,-1.51,1.64,
28.17533, 19:50:18.233,108.03,152.95,294.47,-26.02,9.15,1.19,-0.54,-1.72,2,
28.192, 19:50:18.294,306.37,342.99,30.35,1.33,-2.33,-0.75,-0.52,-1.33,1.53,
28.24335, 19:50:18.371,305.02,342.75,29.18,18.95,-9.94,-3.4,-0.35,-1.12,1.4,
28.32002, 19:50:18.419,303.97,342.59,28.17,48.98,-22.95,-3.99,-0.31,-0.99,1.18,
28.36765, 19:50:18.485,303.16,342.48,27.32,12.5,-5.94,-3.02,-0.11,-0.33,0.56,
28.43339, 19:50:18.542,303.16,342.48,27.32,3.05,-0.73,-1.05,0.03,-0.15,0.28,
28.49195, 19:50:18.598,351.33,4.33,44.4,7.08,-1.64,-0.42,-0.02,-0.24,0.61,
28.54634, 19:50:18.672,351.13,4.26,44.39,16.68,-6.15,-0.93,0.02,-0.15,0.71,
28.6203, 19:50:18.722,350.54,3.85,44.18,23.57,-7.78,-2.81,0.09,-0.08,0.96,
28.67015, 19:50:18.799,349.83,3.28,43.81,50.38,-20.63,-4,0.23,0.33,0.78,
28.74721, 19:50:18.844,349.83,3.28,43.81,26.82,-9.73,-3.68,0.4,0.73,0.7,
28.79341, 19:50:18.920,43.97,21.39,36.23,23.17,-7.95,-2.59,0.41,0.76,0.49,
28.86797, 19:50:18.974,46.13,21.71,35.3,-0.58,2,-1.06,0.41,0.86,0.35,
28.92224, 19:50:19.021,48.24,21.99,34.27,-2.05,2.02,-0.08,0.38,0.75,0.45,
28.96955, 19:50:19.115,50.36,22.27,33.08,3.4,-1.05,0.32,0.38,0.82,0.45,
29.06449, 19:50:19.143,50.36,22.27,33.08,-0.25,0.35,0.43,0.4,0.8,0.46,
29.09086, 19:50:19.198,59.47,23.57,25.23,1.73,-0.28,0,0.38,0.74,0.47,
29.14623, 19:50:19.269,59.3,23.6,25.33,-1.34,0.96,-0.11,0.42,0.78,0.44,
29.21771, 19:50:19.321,59.14,23.64,25.42,-5.56,2.76,-0.11,0.4,0.71,0.45,
29.26843, 19:50:19.378,59.04,23.68,25.47,-18.58,7.67,1.57,0.31,0.65,0.65,
29.32627, 19:50:19.447,59.04,23.68,25.47,-17.23,8.14,0.57,0.37,0.63,0.61,
29.39524, 19:50:19.495,38.82,20.45,36.84,-9.34,3.6,0.24,0.37,0.54,0.81,
29.44335, 19:50:19.547,37.29,20.09,37.39,-3.14,1.5,-1.6,0.39,0.46,0.93,
29.49688, 19:50:19.621,35.84,19.76,37.88,11.2,-3.88,-6.48,0.45,0.55,0.95,
29.57065, 19:50:19.673,34.52,19.47,38.29,66.92,-26.13,-11.83,-0.04,-0.31,1.17,
29.62116, 19:50:19.757,34.52,19.47,38.29,87.4,-34.95,-9.18,0.45,2,-1.43,
29.70479, 19:50:19.808,105.55,160.59,298.97,109.84,-39.76,-4.18,0.92,-0.85,-0.53,
29.75677, 19:50:19.872,112.66,162.19,289.08,53.47,-22.47,-7.34,-0.22,-0.56,-0.44,
29.82004, 19:50:19.947,118.23,163.7,284.28,11.72,-11.11,-3.84,-0.33,-0.63,-0.17,
29.89833, 19:50:20.019,123.09,165.15,281.45,-5.62,-0.05,0.5,-0.33,-0.7,-0.59,
29.96787, 19:50:20.070,123.09,165.15,281.45,-25.31,15.6,2.4,-0.29,-0.55,-0.82,
30.01841, 19:50:20.144,202.22,194.88,277.33,-74.66,39.63,7.32,0.11,0.13,-1.06,
30.09268, 19:50:20.203,199.57,193.62,276.47,-87.18,34.32,8.66,0.27,0.4,-0.48,
30.15126, 19:50:20.280,196.21,191.98,275.51,-53.97,18.64,5.66,0.29,0.69,0.08,
30.22933, 19:50:20.353,192.15,189.97,274.49,-16.37,5.93,1.4,0.52,0.91,0.64,
30.30231, 19:50:20.421,192.15,189.97,274.49,2.68,-2.32,2.63,0.48,0.61,0.88,
30.3699, 19:50:20.471,56.56,28.79,32.56,18.24,-7.39,1.55,0.52,0.74,0.55,
30.41839, 19:50:20.529,56.82,29.11,32.02,12.61,-5.54,-1.23,0.57,0.96,0.31,
30.47769, 19:50:20.578,57.4,29.47,31.26,29.61,-14.92,-4.94,0.59,1.04,-0.31,
30.52598, 19:50:20.672,58.25,29.87,30.25,143.76,-62.06,-12.02,0.46,1.14,-1.22,
30.62023, 19:50:20.724,58.25,29.87,30.25,41.63,-26.15,3.16,-0.05,-0.29,-0.82,
30.6729, 19:50:20.784,184.63,181.15,264.29,31.57,-20.63,-0.39,0.02,-0.31,-0.69,
30.73247, 19:50:20.869,188.05,183.35,264.24,13.58,-10.72,-0.92,-0.29,-0.57,-0.56,
30.81937, 19:50:20.919,192.1,185.73,264.44,3.63,-1.64,-1.32,-0.41,-0.62,-0.54,
30.86854, 19:50:20.980,196.46,188.21,264.93,1.41,2.15,-1.07,-0.43,-0.67,-0.63,
30.93018, 19:50:21.051,196.46,188.21,264.93,-13.66,10.09,-0.27,-0.25,-0.6,-0.55,
31.00114, 19:50:21.120,220.14,200,273.65,-57.04,29.59,0.05,-0.16,-0.22,-0.96,
31.06907, 19:50:21.210,218.35,199.26,272.8,-77.44,39.53,2.47,0.21,0.35,-0.98,
31.15813, 19:50:21.278,216.12,198.35,271.86,-70.51,30.35,6.98,0.23,0.77,-0.33,
31.22689, 19:50:21.329,213.29,197.18,270.83,-42.02,17.56,4.18,0.45,0.92,0.01,
31.2774, 19:50:21.382,213.29,197.18,270.83,-11.04,7.08,2.53,0.75,0.85,0.43,
31.32975, 19:50:21.447,61.22,29.48,28.92,19.6,-8.61,-2.85,0.58,0.98,0.36,
31.39523, 19:50:21.502,60.51,29.47,29.33,84.72,-33.15,-9.05,0.45,0.84,-0.25,
31.45032, 19:50:21.575,60.18,29.43,29.51,103.16,-41.22,-5.92,0.55,2,-1.04,
31.52518, 19:50:21.645,60.27,29.41,29.41,44.43,-24.54,-1.88,-0.4,-1.09,-0.94,
31.59303, 19:50:21.700,60.27,29.41,29.41,32.02,-19.27,-0.84,-0.09,-0.37,-0.85,
31.64772, 19:50:21.771,206.21,192.71,270.14,20.04,-12.64,-0.66,-0.19,-0.44,-0.6,
31.71982, 19:50:21.851,208.64,193.94,270.93,5.05,-2.72,-0.89,-0.39,-0.67,-0.53,
31.80369, 19:50:21.903,211.1,195.13,271.81,-3.68,3.05,-0.96,-0.34,-0.63,-0.55,
31.85182, 19:50:21.970,213.58,196.28,272.78,-30.98,16.73,0.31,-0.23,-0.46,-0.65,
31.91922, 19:50:22.053,213.58,196.28,272.78,-52.98,27.76,0.77,-0.18,-0.23,-1.15,
32.00584, 19:50:22.108,190,186.53,269.06,-77.15,35.47,4.92,0.24,0.39,-0.76,
32.05718, 19:50:22.178,185.07,184.16,268.57,-62.05,25.61,3.64,0.27,0.68,-0.5,
32.1268, 19:50:22.244,179.77,181.59,268.19,-15.82,6.72,0.52,0.44,0.99,-0.11,
32.19237, 19:50:22.318,174.19,178.89,268,-2.49,1.05,2.34,0.55,0.97,0.25,
32.26746, 19:50:22.372,174.19,178.89,268,1.49,-0.88,-0.11,0.5,0.94,0.16,
32.31967, 19:50:22.422,82.93,28.12,352.11,9.98,-3.85,-0.36,0.47,0.82,-0.03,
32.37078, 19:50:22.497,83.13,28.16,351.61,15.77,-6.48,-0.86,0.58,1.08,-0.02,
32.44521, 19:50:22.546,83.34,28.21,351.05,-23.5,10.43,1.11,0.37,0.75,0.03,
32.49569, 19:50:22.598,83.58,28.27,350.36,-14.32,5.59,-0.1,0.48,0.79,0.11,
32.54621, 19:50:22.671,83.58,28.27,350.36,-3.34,0.95,-0.51,0.53,0.85,0.28,
32.61872, 19:50:22.725,72.75,28.81,16.69,1.08,-0.67,-2.13,0.46,0.88,0.3,
32.67222, 19:50:22.794,72.35,28.8,17.57,2.13,0.16,-2.59,0.45,0.9,0.31,
32.74421, 19:50:22.850,71.92,28.77,18.48,-1.79,2.26,-2.69,0.3,0.93,0.28,
32.80035, 19:50:22.898,71.55,28.73,19.33,3.31,1.09,-1.95,0.26,0.96,0.29,
32.84629, 19:50:22.965,71.55,28.73,19.33,4.83,2.05,-0.89,0.25,0.94,0.29,
32.91432, 19:50:23.019,73.38,23.8,17.8,3.88,4.79,0.21,0.21,0.99,0.26,
32.96854, 19:50:23.069,73.61,23.65,17,7.74,5.41,0.67,0.2,1.01,0.3,
33.01736, 19:50:23.124,73.82,23.5,16.21,6.95,7.46,0.9,0.23,0.98,0.35,
33.07256, 19:50:23.197,74,23.35,15.42,6.35,9.37,0.95,0.21,1,0.33,
33.14487, 19:50:23.247,74.13,23.2,14.64,10.15,7.77,0.95,0.29,0.95,0.34,
33.19474, 19:50:23.297,74.13,23.2,14.64,8.96,6.47,2.18,0.73,0.72,0.26,
33.24498, 19:50:23.370,81.65,21.66,347.47,2.85,5.37,2.92,1.13,0.43,0,
33.3175, 19:50:23.422,82.03,22.03,346.48,0.15,2.73,0.18,1.02,0.48,-0.01,
33.37095, 19:50:23.499,82.38,22.48,345.47,-5.79,-0.08,-4.21,0.74,0.63,0.11,
33.44771, 19:50:23.553,82.63,22.99,344.54,-4.74,-5.34,-7.31,0.51,0.83,0.14,
33.50272, 19:50:23.608,82.63,22.99,344.54,-2.1,-9.91,-6.02,0.42,0.99,0.21,
33.55615, 19:50:23.672,78.27,23.97,350.33,-4.18,-10.85,-2.04,0.33,1.03,0.22,
33.62007, 19:50:23.719,78.46,23.76,350.83,-4.37,-9.63,0.19,0.27,0.92,0.27,
33.66817, 19:50:23.794,78.66,23.58,351.3,-4.08,-6.79,0.37,0.34,0.91,0.28,
33.74239, 19:50:23.847,78.83,23.46,351.76,-2.78,-3.73,1.25,0.33,0.93,0.28,
33.79515, 19:50:23.896,78.83,23.46,351.76,6.32,-4.06,7.92,0.54,1.12,0.13,
33.84346, 19:50:23.974,77.14,28.39,8.13,10.09,-0.05,26.43,0.67,1.16,0.05,
33.9221, 19:50:24.020,77.89,29.36,5.37,-16.53,9.81,45.73,0.41,0.82,0.6,
33.96917, 19:50:24.073,78.66,30.53,2.04,1.13,-4.24,43.72,0.88,0.38,0.51,
34.02107, 19:50:24.147,79.45,31.94,358.18,-10.5,-4.05,33.6,0.76,-0.28,0.42,
34.09484, 19:50:24.198,79.45,31.94,358.18,3.11,-6.44,22.34,0.91,-0.25,0.21,
34.14622, 19:50:24.269,298.79,66.69,300.89,4.59,-4.31,14.28,0.82,-0.25,0.09,
34.21712, 19:50:24.327,296.37,65.42,298.42,0.58,-3.07,6.94,0.81,-0.41,-0.02,
34.27559, 19:50:24.381,294.37,64.17,296.45,0.64,-1.63,1.71,0.89,-0.65,-0.03,
34.32991, 19:50:24.451,292.69,62.95,294.42,2.66,-1.6,-0.39,0.76,-0.63,0.04,
34.39934, 19:50:24.519,292.69,62.95,294.42,4.08,-2.57,-1.17,0.79,-0.6,0.03,
34.46761, 19:50:24.571,279.15,54.68,254.05,2.83,-0.19,-1.22,0.84,-0.56,0.07,
34.51889, 19:50:24.645,279.07,54.76,253.62,1.39,1.24,-0.85,0.86,-0.57,0.1,
34.5925, 19:50:24.696,278.99,54.83,253.32,1.86,1.09,-1.1,0.88,-0.57,0.12,
34.64463, 19:50:24.758,278.96,54.91,253.15,1.45,0.31,-1.83,0.88,-0.56,0.15,
34.70639, 19:50:24.845,278.96,54.91,253.15,0.5,0.55,-1.65,0.9,-0.57,0.12,
34.79237, 19:50:24.886,282.53,56.66,259.32,0.96,0.51,-1.21,0.89,-0.56,0.14,
34.83458, 19:50:24.954,282.56,56.73,259.47,1.11,0.21,-1.08,0.89,-0.53,0.12,
34.90352, 19:50:25.019,282.59,56.8,259.62,1.25,0.34,-0.97,0.88,-0.51,0.14,
34.96765, 19:50:25.074,282.64,56.87,259.78,1.11,0.65,-0.53,0.89,-0.51,0.15,
35.02247, 19:50:25.144,282.64,56.87,259.78,0.97,0.52,-0.32,0.89,-0.52,0.14,
35.09317, 19:50:25.201,284.2,57.68,262.6,0.93,0.16,-0.4,0.89,-0.52,0.14,
35.14919, 19:50:25.260,284.24,57.67,262.64,1.16,0.08,-0.41,0.89,-0.53,0.14,
35.20757, 19:50:25.321,284.26,57.67,262.64,1.02,0.18,-0.41,0.89,-0.53,0.14,
35.27099, 19:50:25.379,284.29,57.67,262.6,1.5,0.11,-0.34,0.88,-0.52,0.14,
35.32722, 19:50:25.447,284.29,57.67,262.6,1.36,0.04,-0.19,0.89,-0.52,0.15,
35.39518, 19:50:25.524,284.45,57.6,261.76,1.3,0.18,0.05,0.89,-0.53,0.15,
35.47295, 19:50:25.569,284.46,57.59,261.71,1.6,0,0.11,0.89,-0.52,0.14,
35.51748, 19:50:25.622,284.47,57.56,261.66,1.41,-0.08,0.08,0.88,-0.53,0.13,
35.57114, 19:50:25.694,284.48,57.54,261.64,1.94,-0.32,-0.02,0.88,-0.54,0.14,
35.64268, 19:50:25.745,284.48,57.54,261.64,2.11,-0.49,0.03,0.86,-0.53,0.13,
35.69356, 19:50:25.819,284.48,57.54,261.64,2.4,-0.79,0.11,0.86,-0.54,0.15,
35.76804, 19:50:25.872,284.37,56.54,257.86,1.95,-0.14,0.15,0.88,-0.56,0.15,
35.82068, 19:50:25.948,284.36,56.5,257.67,1.76,0.21,0.01,0.88,-0.56,0.14,
35.89641, 19:50:26.001,284.36,56.47,257.53,1.68,0.23,-0.24,0.87,-0.57,0.14,
35.94946, 19:50:26.072,284.36,56.44,257.41,1.54,-0.15,-0.46,0.86,-0.55,0.14,
36.02001, 19:50:26.121,284.36,56.44,257.41,1.18,-0.8,-0.88,0.88,-0.57,0.15,
36.06979, 19:50:26.195,284.63,56.06,255.84,1.27,-0.85,-1.6,0.88,-0.57,0.13,
36.14357, 19:50:26.252,284.54,56.12,255.7,0.94,-0.86,-2.89,0.88,-0.54,0.1,
36.20055, 19:50:26.319,284.46,56.18,255.57,-1.1,-2.65,-8.11,0.93,-0.48,-0.06,
36.26727, 19:50:26.395,284.38,56.25,255.43,-5.73,-5.09,-18.32,1.04,-0.32,-0.05,
36.34267, 19:50:26.449,284.38,56.25,255.43,-11.37,2.44,-27.44,1.09,-0.29,0.12,
36.39743, 19:50:26.519,270.97,80.61,261.14,-6.67,5.99,-34.32,0.92,-0.03,0.16,
36.46762, 19:50:26.568,272.33,82.82,263.85,2.57,4.21,-37.61,0.7,0.11,0.21,
36.51653, 19:50:26.644,275.75,85.1,266.94,5.76,0.5,-37.27,0.53,0.43,0.17,
36.59299, 19:50:26.694,286.81,87.41,270.41,-3.11,1.53,-32.59,0.39,0.76,0.19,
36.64248, 19:50:26.769,286.81,87.41,270.41,-19.84,6.74,-23.95,0.46,1.15,0.03,
36.71771, 19:50:26.822,77.86,16.94,21.48,-19.98,8.28,-12.61,0.19,0.95,0.46,
36.77096, 19:50:26.876,75.95,15.12,28.06,-4.7,0.37,-4.32,0.13,1.07,0.52,
36.82346, 19:50:26.945,73.78,13.41,33.5,-4.09,-0.37,1.58,0.09,0.97,0.52,
36.89264, 19:50:27.020,71.53,11.81,38.07,-2.39,-0.38,5.3,0.07,0.89,0.56,
36.96824, 19:50:27.072,71.53,11.81,38.07,2.91,-2.63,6.25,0.05,0.92,0.58,
37.0202, 19:50:27.120,55.01,8.84,55.29,3.68,-2.82,10.4,0.23,0.9,0.53,
37.06796, 19:50:27.169,55.15,9.39,54.8,10.71,-7.44,20.02,0.4,0.83,0.52,
37.11731, 19:50:27.247,55.26,9.99,54.28,3.83,-7.66,30.44,0.44,0.83,0.54,
37.19497, 19:50:27.302,55.35,10.63,53.71,8.23,-12.2,36.66,0.63,0.51,0.49,
37.24964, 19:50:27.370,55.35,10.63,53.71,5.54,-9.94,41.73,0.92,0.5,0.46,
37.31842, 19:50:27.442,49.67,67.67,345.51,-2.06,-7.55,41.04,0.8,-0.07,0.39,
37.39146, 19:50:27.494,45.1,70.55,341.09,-1.15,-9.68,32.87,0.8,-0.36,0.2,
37.44286, 19:50:27.531,38.61,73.21,337.01,-9.71,-5.79,21.73,0.76,-0.6,-0.13,
37.4798, 19:50:27.599,29.57,75.52,333.16,2.73,-6.83,10.43,0.81,-0.76,-0.28,
37.54785, 19:50:27.658,29.57,75.52,333.16,7.24,-4.18,1.89,0.76,-0.71,-0.25,
37.60707, 19:50:27.725,265.18,136.48,206.54,5.63,-1.44,-2.86,0.72,-0.77,-0.09,
37.673, 19:50:27.798,265.29,136.57,207.53,6.69,-2.68,-2.71,0.69,-0.79,0,
37.74618, 19:50:27.861,265.4,136.59,208.48,5.35,-3.24,-0.8,0.74,-0.73,0.01,
37.80911, 19:50:27.944,265.51,136.56,209.34,2.91,-1.63,-0.45,0.75,-0.71,-0.02,
37.89288, 19:50:27.994,265.51,136.56,209.34,1.91,-0.31,-0.91,0.77,-0.73,-0.05,
37.94301, 19:50:28.079,268.89,134.6,223.54,1.71,0.5,-1.31,0.79,-0.74,-0.04,
38.02762, 19:50:28.120,268.91,134.56,223.62,1.32,0.59,-1.34,0.79,-0.73,-0.01,
38.06797, 19:50:28.195,268.94,134.51,223.74,1.34,-0.28,-0.92,0.78,-0.71,0.01,
38.14308, 19:50:28.247,268.98,134.46,223.86,0.91,-0.69,-0.36,0.78,-0.71,0,
38.19614, 19:50:28.319,268.98,134.46,223.86,1.77,-1.6,-0.32,0.76,-0.74,-0.02,
38.26804, 19:50:28.370,268.91,133.37,225,3.1,-1.24,-2.2,0.84,-0.72,-0.1,
38.31908, 19:50:28.450,268.84,133.38,224.9,2.92,0.78,-2.62,0.79,-0.65,0.01,
38.39852, 19:50:28.504,268.75,133.37,224.8,2.5,0.85,-0.51,0.77,-0.61,0.1,
38.45257, 19:50:28.569,268.69,133.33,224.78,1.97,-0.82,0.6,0.75,-0.61,0.13,
38.51801, 19:50:28.629,268.69,133.33,224.78,0.76,-1.03,0.34,0.78,-0.67,0.04,
38.57729, 19:50:28.721,271.36,48.21,229.88,0.96,0.08,-0.08,0.79,-0.69,-0.03,
38.66908, 19:50:28.751,271.26,48.16,229.71,1.74,0.96,-0.66,0.8,-0.71,-0.06,
38.6988, 19:50:28.819,271.17,48.11,229.55,2.05,0.69,-2.84,0.88,-0.71,-0.03,
38.76754, 19:50:28.883,271.11,48.08,229.43,2.61,-0.73,-3.79,0.81,-0.72,0.04,
38.8316, 19:50:28.944,271.11,48.08,229.43,2.15,-2.34,-5.67,0.82,-0.67,-0.05,
38.89269, 19:50:29.020,271.84,52.07,233.97,2.98,-3.45,-12.23,0.93,-0.78,-0.11,
38.96918, 19:50:29.071,271.63,52.5,234.15,1.12,0.21,-27.1,0.88,-0.63,-0.36,
39.02008, 19:50:29.147,271.37,52.98,234.35,-12.62,9.28,-39.6,0.81,-0.23,0.18,
39.09504, 19:50:29.208,271.12,53.5,234.59,-16.69,17.6,-43.95,0.57,0.16,0.43,
39.15828, 19:50:29.295,271.12,53.5,234.59,0.53,10.15,-40.82,0.47,0.32,0.52,
39.24505, 19:50:29.356,60.25,48.94,349.13,8.09,-2.66,-33.08,0.45,0.92,0.5,
39.30431, 19:50:29.402,61.52,45.88,352.06,5.85,-7.13,-21.97,0.36,1.06,0.32,
39.35091, 19:50:29.451,62.96,42.94,354.48,-2.08,-3.62,-11.42,0.26,1.1,0.18,
39.39996, 19:50:29.519,64.44,40.12,356.61,1.88,-4.23,-5.61,0.15,1.05,0.17,
39.46728, 19:50:29.572,64.44,40.12,356.61,-0.56,-2.07,-2.48,0.12,1.05,0.18,
39.52039, 19:50:29.623,77.06,9.32,30.39,0.7,-0.84,-1.09,0.14,0.99,0.21,
39.57186, 19:50:29.697,76.99,9.22,30.97,2.93,-0.39,-0.31,0.11,0.98,0.17,
39.64588, 19:50:29.745,76.92,9.15,31.51,0.96,0.92,1.44,0.1,0.99,0.15,
39.69251, 19:50:29.819,76.88,9.09,31.96,-12.3,6.32,4.5,0.11,1.04,0.14,
39.76831, 19:50:29.869,76.88,9.09,31.96,-36.66,16.64,8.47,0.06,0.68,0.33,
39.81804, 19:50:29.927,58.78,11.16,43.32,-26.9,10.26,9.42,0.11,0.58,0.71,
39.87729, 19:50:30.003,55.58,11.07,44.25,-3.84,-0.9,7.6,0.21,0.46,0.92,
39.95152, 19:50:30.055,52.51,10.96,44.97,-6.13,2.93,5.44,0.28,0.57,0.88,
40.00242, 19:50:30.105,49.53,10.91,45.62,-15.85,7.8,4.07,0.22,0.36,0.93,
40.05228, 19:50:30.170,49.53,10.91,45.62,-14.25,6.94,3.2,0.22,0.27,1.03,
40.11797, 19:50:30.219,16.66,10.6,41.26,-5.76,3.81,1.99,0.23,0.19,1.07,
40.16718, 19:50:30.297,15.39,10.18,41.14,-1.29,2.24,0.92,0.18,0.09,1.05,
40.24509, 19:50:30.345,14.23,9.8,41,16.84,-6.48,-0.15,0.28,0.18,1,
40.29255, 19:50:30.397,13.25,9.48,40.85,22.9,-10.24,-1.56,0.21,0.36,0.8,
40.34513, 19:50:30.448,13.25,9.48,40.85,16.79,-7.63,-2.34,0.32,0.46,0.87,
40.39581, 19:50:30.518,30.99,16.85,35.6,31.56,-14.24,-3.16,0.34,0.58,0.68,
40.4665, 19:50:30.577,32.68,17.41,35.23,36.07,-14.8,-2.95,0.47,0.82,0.41,
40.52679, 19:50:30.644,34.62,18.03,34.76,34.76,-11.07,-2.95,0.36,0.84,0.09,
40.59288, 19:50:30.697,36.78,18.69,34.14,27.09,-11.37,-2.05,0.38,0.93,-0.18,
40.64542, 19:50:30.772,36.78,18.69,34.14,19.2,-7.15,-1.63,0.34,0.9,-0.41,
40.72029, 19:50:30.826,113.35,158.25,298.04,37.98,-14.23,-2.98,0.24,0.63,-0.84,
40.7751, 19:50:30.902,115.08,158.62,296.24,31.78,-11.69,1.29,0.14,0.57,-0.8,
40.85051, 19:50:30.970,117.06,159.07,294.38,23.95,-7.93,0.69,0.23,0.35,-1.08,
40.91736, 19:50:31.021,119.47,159.64,292.3,23.2,-9.69,0.86,0.09,0.15,-1.05,
40.96989, 19:50:31.092,119.47,159.64,292.3,17.56,-8.64,4.19,0.02,0.03,-1.05,
41.04286, 19:50:31.148,182.8,180.39,270.35,11.73,-7.53,0.59,0.08,-0.27,-0.91,
41.0962, 19:50:31.219,184.1,181.12,269.98,17.4,-8.82,-0.36,-0.18,-0.38,-0.96,
41.16709, 19:50:31.287,185.35,181.86,269.6,10.34,-3.6,-1.76,-0.18,-0.4,-0.88,
41.23538, 19:50:31.369,186.54,182.56,269.28,-1.59,1.33,-2.05,-0.21,-0.47,-0.83,
41.31865, 19:50:31.426,186.54,182.56,269.28,-13.85,7.73,-0.48,-0.32,-0.55,-0.88,
41.37507, 19:50:31.494,201.47,189.64,271.42,-24.71,11.35,0.48,-0.13,-0.22,-0.73,
41.44359, 19:50:31.575,200.47,189.22,271.21,-49.51,23.98,2.17,-0.08,0.02,-1.15,
41.5238, 19:50:31.625,199.51,188.81,271.02,-46.55,22.42,3,0.34,0.64,-0.92,
41.57376, 19:50:31.693,198.55,188.43,270.85,-9.98,6.43,-0.63,0.48,0.74,-0.8,
41.64255, 19:50:31.771,198.55,188.43,270.85,4.21,-1.26,-0.51,0.51,0.94,-0.48,
41.71875, 19:50:31.822,125,157.71,281.09,-37.34,18.47,1.47,0.58,1.23,-0.4,
41.76987, 19:50:31.915,125.05,157.7,281.08,-42.44,19.66,4.72,0.5,0.78,0.1,
41.86422, 19:50:31.946,124.68,157.61,281.4,11.89,-6.41,2.85,0.42,0.75,0.32,
41.89526, 19:50:32.019,123.72,157.38,282.11,-3.95,1.82,0.08,0.39,0.68,0.2,
41.96723, 19:50:32.072,123.72,157.38,282.11,-4.8,2.43,-2.29,0.42,0.68,0.15,
42.02037, 19:50:32.144,75.88,31.14,359.27,3.6,-1.19,-2.7,0.41,0.68,0.15,
42.09293, 19:50:32.194,75.31,30.93,0.58,-2.21,1.81,-0.21,0.43,0.7,0.22,
42.14349, 19:50:32.247,74.83,30.71,1.74,0.54,0.33,1.19,0.42,0.78,0.19,
42.19561, 19:50:32.297,74.51,30.5,2.56,-6.21,3.72,1.31,0.4,0.6,0.14,
42.24547, 19:50:32.350,74.51,30.5,2.56,-4.8,5.3,-0.79,0.34,0.49,0.2,
42.29905, 19:50:32.422,74.51,30.5,2.56,10.44,-2.44,-3.44,0.47,0.86,0.53,
42.37007, 19:50:32.473,67.41,29.17,12.18,25.79,-10.9,-3.23,0.76,1.5,0.03,
42.42109, 19:50:32.560,68.49,29.02,10.86,12.65,-5.47,-0.86,0.68,1.23,-0.17,
42.5072, 19:50:32.604,69.98,28.93,8.92,4.47,-1.8,0.37,0.59,0.97,-0.14,
42.55262, 19:50:32.653,71.96,28.88,6.13,13.45,-5.3,-1,0.51,0.88,-0.15,
42.60104, 19:50:32.722,71.96,28.88,6.13,8.37,-3.27,-2.2,0.49,0.87,-0.2,
42.67, 19:50:32.799,105.99,152.44,300.74,-11.06,5.31,-2.79,0.41,0.72,-0.17,
42.74921, 19:50:32.848,106.44,152.62,300.17,-24.43,10.71,-1.6,0.44,0.76,-0.1,
42.7966, 19:50:32.920,106.52,152.75,300.11,-34.02,14.56,-1.05,0.24,0.63,0.39,
42.86748, 19:50:32.973,106.2,152.85,300.63,30.25,-19.02,-8.52,0.07,0.47,0.95,
42.92155, 19:50:33.059,106.2,152.85,300.63,123.71,-50.27,0.94,0.24,1.28,-0.26,
43.00788, 19:50:33.118,123.6,161.03,283.88,42.76,-20.37,-0.29,0.05,-0.27,-0.83,
43.06631, 19:50:33.194,133.73,163.48,277.23,47.41,-22.38,-3.32,-0.09,-0.49,-0.82,
43.1429, 19:50:33.248,142.48,166.16,272.91,-6.4,3.01,-1.02,-0.39,-0.68,-0.81,
43.19608, 19:50:33.319,149.56,168.59,270.05,-7.66,2.91,0.31,-0.37,-0.41,-1.09,
43.26763, 19:50:33.370,149.56,168.59,270.05,-2.23,0.03,0.63,-0.26,-0.4,-1.05,
43.31891, 19:50:33.443,195.33,190.16,268.18,0.65,0.03,1.01,-0.16,-0.31,-0.97,
43.39138, 19:50:33.499,195.25,190.27,268.11,1.96,-0.18,0.06,-0.17,-0.24,-1,
43.44823, 19:50:33.572,195.2,190.36,268.01,2.88,-0.63,-0.21,-0.2,-0.24,-0.97,
43.52013, 19:50:33.647,195.18,190.44,267.89,5.56,-1.59,-0.1,-0.23,-0.32,-0.87,
43.59493, 19:50:33.720,195.18,190.44,267.89,-1.52,1.65,-0.44,-0.16,-0.21,-0.95,
43.73088, 19:50:33.789,199.92,192.79,266.96,-1.83,2.31,-1.09,-0.21,-0.31,-1,
43.74776, 19:50:33.841,199.57,192.62,266.89,-9.36,5.69,-1.7,-0.19,-0.29,-0.83,
43.78901, 19:50:33.921,199.27,192.47,266.83,-61.69,30.31,2.37,-0.07,-0.15,-0.96,
43.86979, 19:50:33.979,200.6,145.54,341.29,-62.95,30.66,4.15,0.11,0.33,-0.53,
43.92789, 19:50:34.050,200.6,145.54,341.29,-46.44,22.78,6.39,0.4,0.73,0.02,
43.99921, 19:50:34.097,102.61,153.4,301.51,-16.7,10.67,2.21,0.59,0.94,0.19,
44.04622, 19:50:34.169,98.27,152.58,310.53,-9.22,6.34,3.48,0.59,1.24,0.42,
44.118, 19:50:34.223,94.36,151.93,320.06,-12.83,6.18,-0.2,0.65,0.76,0.51,
44.17136, 19:50:34.295,90.87,151.47,329.12,1.08,1.16,-0.76,0.51,0.72,0.5,
44.24284, 19:50:34.348,90.87,151.47,329.12,16.36,-6.32,-3.89,0.58,0.86,0.57,
44.29662, 19:50:34.419,66.44,29.24,14.9,2.27,-0.88,-2.47,0.53,1.25,0.32,
44.36761, 19:50:34.478,68.05,29.22,13.05,-27.65,13.31,-0.63,0.43,0.77,0.35,
44.42606, 19:50:34.524,69.58,29.21,11.24,-10.39,3.85,-1.15,0.24,0.48,0.53,
44.4726, 19:50:34.582,70.9,29.17,9.63,14.08,-6.46,-1.64,0.46,0.68,0.47,
44.53012, 19:50:34.645,70.9,29.17,9.63,1.34,1.87,-0.16,0.6,1.04,0.48,
44.59307, 19:50:34.719,59.02,25.64,27.64,-9.44,4.94,-0.53,0.32,0.65,0.57,
44.66833, 19:50:34.770,58.63,25.55,27.81,-3.47,1.94,-0.39,0.41,0.75,0.62,
44.71878, 19:50:34.823,57.73,25.38,28.42,-14.83,7.02,0.06,0.39,0.64,0.63,
44.77148, 19:50:34.894,56.52,25.12,29.31,-0.96,0.66,-0.63,0.36,0.54,0.68,
44.8434, 19:50:34.946,56.52,25.12,29.31,16.49,-7.35,-1.5,0.34,0.58,0.73,
44.89529, 19:50:35.000,44.07,22.38,37.7,6.46,-2.46,-1.53,0.46,0.72,0.6,
44.94946, 19:50:35.068,45.55,22.78,37.08,6.7,-2.24,-1.18,0.39,0.75,0.5,
45.01712, 19:50:35.119,46.95,23.17,36.47,-3.98,2.83,0.26,0.46,0.68,0.5,
45.06789, 19:50:35.194,48.25,23.49,35.88,42.15,-14.86,-2.04,0.21,1.19,-0.51,
45.14281, 19:50:35.246,48.25,23.49,35.88,222.66,-93.18,-20.87,0.22,2,-2,
45.19406, 19:50:35.322,153.05,169.63,271.34,73.44,-13.31,2.2,-0.4,-1,1.21,
45.27037, 19:50:35.373,169.27,176.3,270.58,-12.35,3.43,-0.37,-0.2,-0.77,-0.84,
45.32172, 19:50:35.448,183.05,181.4,271.3,-4.91,1.53,1.69,-0.36,-1.03,-1.07,
45.39653, 19:50:35.520,194.14,184.67,272.4,-11.13,2.3,2.6,-0.25,-0.67,-0.87,
45.46755, 19:50:35.593,194.14,184.67,272.4,-4.72,-0.01,2.3,-0.15,-0.55,-0.9,
45.54128, 19:50:35.648,212.03,191.49,272.43,-3.71,-0.28,1.98,-0.21,-0.39,-0.82,
45.59645, 19:50:35.719,211.46,191.55,272.19,-10.08,2.52,2.72,-0.17,-0.36,-0.91,
45.66735, 19:50:35.795,210.87,191.6,271.94,-9.01,2.33,1.95,-0.19,-0.3,-0.93,
45.74426, 19:50:35.854,210.32,191.66,271.73,-1.73,0.71,0.5,-0.27,-0.34,-0.96,
45.80289, 19:50:35.919,210.32,191.66,271.73,2.6,-0.05,-0.54,-0.27,-0.28,-0.98,
45.8678, 19:50:35.980,210.32,191.66,271.73,0.7,1.11,-1.05,-0.21,-0.26,-1,
45.92765, 19:50:36.045,195.57,191.8,266.21,-0.63,2.1,-1.22,-0.2,-0.23,-0.99,
45.99492, 19:50:36.121,195.54,191.71,266.23,-11.27,6.75,-1.18,-0.16,-0.1,-0.88,
46.06865, 19:50:36.182,195.5,191.61,266.26,-60.03,28.8,0.53,0.08,0.43,-0.99,
46.13024, 19:50:36.247,195.47,191.51,266.28,-74.85,35.11,1.74,0.37,0.87,-0.97,
46.19517, 19:50:36.320,195.47,191.51,266.28,-35.11,16.93,2.45,0.37,0.83,-0.08,
46.2674, 19:50:36.403,96.01,156.13,320.35,-0.5,-1.15,0.99,0.34,0.84,-0.22,
46.35202, 19:50:36.460,93.42,155.78,326.71,11.11,-3.34,2.48,0.48,0.94,-0.08,
46.40853, 19:50:36.500,91.51,155.44,331.42,-3.7,5.23,0.98,0.55,1.03,-0.15,
46.45052, 19:50:36.576,90.17,155.13,334.68,-19.53,13,-1.6,0.46,0.88,0.07,
46.52413, 19:50:36.623,90.17,155.13,334.68,-10.44,4.76,-3.06,0.35,0.77,0.17,
46.57117, 19:50:36.695,75.8,26.21,5.05,-8.29,2.37,-1.63,0.44,0.76,0.42,
46.64251, 19:50:36.747,74.83,25.91,7.16,-2.69,-0.24,-0.35,0.32,0.74,0.33,
46.70095, 19:50:36.820,73.89,25.6,9.16,-0.59,-0.4,-1.16,0.47,0.98,0.31,
46.76735, 19:50:36.871,72.94,25.28,11.1,-11.7,6.42,-0.79,0.42,0.7,0.45,
46.8198, 19:50:36.921,72.94,25.28,11.1,-6.46,4.62,-0.44,0.47,0.82,0.45,
46.87009, 19:50:36.995,56.23,22.09,33.15,-4.33,1.82,-0.8,0.33,0.92,0.58,
46.94291, 19:50:37.069,55.65,21.95,33.48,-7.18,3.54,-1.84,0.34,0.71,0.62,
47.01754, 19:50:37.119,55.16,21.77,33.74,-7.06,3.42,0.09,0.33,0.64,0.67,
47.0682, 19:50:37.173,54.77,21.58,33.91,-11.34,5.43,2.81,0.31,0.59,0.72,
47.12098, 19:50:37.222,54.77,21.58,33.91,-8.88,4.44,3.69,0.31,0.55,0.8,
47.16986, 19:50:37.275,33.57,17.24,41.82,4.91,-1.84,2.16,0.35,0.67,0.86,
47.22284, 19:50:37.330,32.86,17.23,41.69,7.71,-2.95,0.46,0.37,0.61,0.82,
47.2775, 19:50:37.395,32.38,17.26,41.5,18,-7.8,-1.24,0.38,0.58,0.7,
47.34362, 19:50:37.469,32.15,17.37,41.28,28.57,-12.7,-1.75,0.45,0.83,0.6,
47.41932, 19:50:37.527,32.15,17.37,41.28,20.21,-9.44,-2.12,0.41,0.81,0.32,
47.47557, 19:50:37.596,69.44,26.63,14.92,34.47,-13.6,-2.66,0.56,1.13,0.03,
47.544, 19:50:37.649,71.88,26.8,11.41,16.53,-6.73,-1.86,0.45,0.91,-0.11,
47.59817, 19:50:37.719,74.69,26.96,6.81,10.47,-5.04,-1.43,0.39,0.85,-0.27,
47.66716, 19:50:37.760,77.84,27.07,0.98,1.4,-0.73,-0.89,0.4,0.79,-0.31,
47.70831, 19:50:37.818,77.84,27.07,0.98,-2.45,1.11,-0.65,0.32,0.75,-0.26,
47.76588, 19:50:37.895,108.31,156.02,295.86,-2.56,1.08,0.54,0.36,0.78,-0.14,
47.84232, 19:50:37.944,108.03,156.02,296.21,-5.29,3.65,1.08,0.4,0.84,-0.15,
47.89226, 19:50:38.019,107.77,156.01,296.52,-4.02,2.99,1.2,0.4,0.85,-0.06,
47.96811, 19:50:38.069,107.5,155.98,296.84,-4.17,3.66,0.77,0.44,0.83,-0.05,
48.01806, 19:50:38.147,107.5,155.98,296.84,2.05,0.41,0.34,0.44,0.81,-0.08,
48.09514, 19:50:38.194,94.85,152.02,320.23,2.5,0.44,0.27,0.47,0.85,-0.11,
48.14246, 19:50:38.253,95.01,151.96,319.81,3.73,-0.7,-0.4,0.5,0.92,-0.21,
48.20119, 19:50:38.323,95.2,151.9,319.35,8.51,-4.33,-1.24,0.45,0.86,-0.26,
48.27142, 19:50:38.375,95.4,151.84,318.88,26.98,-12.59,-2.73,0.38,0.78,-0.37,
48.32384, 19:50:38.446,95.4,151.84,318.88,35.66,-14.02,-3.08,0.34,0.61,-0.93,
48.39414, 19:50:38.520,131.1,158.98,276.19,93.68,-41,-0.5,0.45,0.9,-1.61,
48.46795, 19:50:38.575,135.18,160.18,274.5,62.69,-34.53,-0.79,-0.23,-0.24,-1.11,
48.52491, 19:50:38.648,140.23,161.79,272.75,59.63,-33.5,0.63,-0.24,-0.61,-0.52,
48.59506, 19:50:38.707,146.24,163.89,271.06,25.87,-12.95,0.11,-0.06,-0.44,0.34,
48.65488, 19:50:38.771,146.24,163.89,271.06,-1.11,2.94,-0.84,-0.34,-0.62,0.29,
48.71951, 19:50:38.853,279.71,333.57,350.4,-11.04,6.69,0.79,-0.45,-0.82,0.1,
48.80343, 19:50:38.921,279.27,333.58,349.86,-48.05,23.86,2.44,-0.3,-0.45,-0.06,
48.87002, 19:50:38.994,278.75,333.48,348.97,-71.36,34.81,2.45,-0.43,-0.52,-0.97,
48.94261, 19:50:39.045,278.14,333.37,347.91,-73.29,35.21,6.73,0.17,0.36,-0.97,
48.99434, 19:50:39.094,278.14,333.37,347.91,-50.48,22.89,4.58,0.08,0.45,-1,
49.04237, 19:50:39.170,140.09,167.24,269.23,-23.36,12.92,4.68,0.41,0.92,-0.66,
49.11872, 19:50:39.243,136.37,165.84,270.18,-7.44,5.98,2.1,0.36,0.8,-0.41,
49.1912, 19:50:39.299,133.22,164.66,271.08,4.31,-1.65,0.09,0.47,0.89,-0.72,
49.24743, 19:50:39.347,130.57,163.62,271.93,70.21,-33.81,-8.73,0.17,0.54,-1.58,
49.2949, 19:50:39.422,130.57,163.62,271.93,163.12,-69.53,-9.95,0.38,1.91,-2,
49.37029, 19:50:39.495,211.29,195.08,273.91,47.24,-25.57,-11.66,-0.99,-0.8,0.06,
49.4434, 19:50:39.551,221.99,198.31,277.69,32.79,-15.05,1.7,-0.04,-0.31,0.38,
49.50109, 19:50:39.621,229.96,200.31,281.04,1.74,-0.57,-0.09,-0.28,-0.67,0.34,
49.56867, 19:50:39.696,235.74,201.54,283.76,-15.08,8.05,0.25,-0.37,-0.66,0.24,
49.64375, 19:50:39.769,235.74,201.54,283.76,-58.51,28.12,1.3,-0.13,-0.43,-0.22,
49.71846, 19:50:39.823,258.04,204.45,310.7,-90.87,43.51,1.95,-0.19,-0.53,-1.09,
49.77127, 19:50:39.899,250.93,203.82,299.24,-87.41,40.74,13.03,0.35,1.45,-1.03,
49.84751, 19:50:39.969,242.95,202.7,289.51,-38.47,21.34,2.27,0.44,0.68,-0.8,
49.91853, 19:50:40.023,234.46,201.06,282.05,-4.34,5.25,-0.12,0.51,1.04,-0.22,
49.97134, 19:50:40.098,234.46,201.06,282.05,-0.85,-0.64,-0.5,0.53,0.94,-0.49,
50.04631, 19:50:40.170,100.56,152.03,306.33,91.48,-42.87,-9.57,0.06,0.41,-1.53,
50.11885, 19:50:40.241,101.35,152.15,304.46,134.56,-58.67,-9.05,0.4,1.24,-2,
50.19185, 19:50:40.299,102.99,152.43,300.95,54.29,-20.47,-3.34,-0.33,-1.25,0.12,
50.24686, 19:50:40.372,105.78,152.96,295.67,20.65,-11.29,-0.04,-0.18,-0.64,0.05,
50.32042, 19:50:40.423,105.78,152.96,295.67,7.53,-3.34,-0.56,-0.31,-0.66,0.08,
50.37394, 19:50:40.493,273.43,335.55,342.54,-4.24,3.27,-0.96,-0.44,-0.85,0.07,
50.44158, 19:50:40.554,273.73,335.57,343.16,-21.11,10.79,0.33,-0.26,-0.66,0.09,
50.5028, 19:50:40.620,273.85,335.61,343.43,-64.73,31.93,1.07,-0.18,-0.56,-0.83,
50.56877, 19:50:40.693,273.82,335.63,343.42,-68.98,33.53,1.99,-0.19,-0.36,-1.06,
50.64185, 19:50:40.747,273.82,335.63,343.42,-73.44,35.84,3.17,0.27,0.71,-1,
50.69508, 19:50:40.820,150.18,166.3,268.12,-35.3,16.76,0.83,0.31,0.59,-0.82,
50.76726, 19:50:40.886,144.3,163.98,269.52,-11.02,4.65,0.04,0.46,0.86,-0.46,
50.83423, 19:50:40.947,138.76,161.97,271.25,32.27,-17.69,-2.19,0.22,0.63,-1.1,
50.89532, 19:50:41.025,133.69,160.26,273.25,140.15,-60.6,-16.17,0.34,1.03,-2,
50.97282, 19:50:41.080,133.69,160.26,273.25,67.32,-22.66,1.43,-0.17,-0.24,-1.02,
51.02812, 19:50:41.147,222.9,196.62,276.57,45.93,-17.95,1.34,0.28,-0.74,-0.52,
51.09509, 19:50:41.219,228,197.92,278.42,30.16,-15.2,1.93,-0.25,-0.65,0.19,
51.16966, 19:50:41.274,233.24,199.19,280.98,9.93,-4.34,2.02,-0.23,-0.51,0.41,
51.22356, 19:50:41.347,238.72,200.4,284.62,-7.85,5.02,0.81,-0.32,-0.6,0.42,
51.29549, 19:50:41.408,238.72,200.4,284.62,-60.35,41.03,2.6,-0.24,-0.14,-0.41,
51.35692, 19:50:41.519,268.93,207.5,330.33,-98.26,51.42,0.06,-0.18,-0.62,-1.2,
51.46844, 19:50:41.546,261.05,207.21,314.92,-85.15,48.03,3.79,0.59,1.01,-1.29,
51.49532, 19:50:41.622,252.09,206.47,300.26,-63.35,30.76,2.48,0.34,0.71,-1.2,
51.5699, 19:50:41.674,242.28,205.03,288.66,-1.83,3.05,1.12,0.44,0.65,0.2,
51.62326, 19:50:41.749,242.28,205.03,288.66,27.13,-11.15,-1.34,0.54,1.08,-0.28,
51.69742, 19:50:41.818,103.02,149.86,304.33,-0.87,0.62,-0.34,0.55,0.99,-0.19,
51.76654, 19:50:41.873,104.91,150.13,301.5,-12.49,5.04,-1.34,0.43,0.81,-0.2,
51.82222, 19:50:41.932,106.29,150.33,299.52,12.15,-6.58,-2.38,0.43,0.76,-0.28,
51.87989, 19:50:41.996,107.16,150.48,298.29,13.16,-7.01,-2.14,0.47,0.89,-0.34,
51.94489, 19:50:42.070,107.16,150.48,298.29,-1.21,-0.58,-1.21,0.51,0.94,-0.38,
52.01909, 19:50:42.159,114.43,154.72,287.58,-3.19,0.76,-1.32,0.42,0.78,-0.33,
52.10918, 19:50:42.199,113.9,154.72,288.02,-0.73,-0.2,-1.37,0.43,0.89,-0.31,
52.14769, 19:50:42.253,113.18,154.68,288.7,-1.96,0.16,-1.47,0.39,0.83,-0.33,
52.20114, 19:50:42.322,112.4,154.63,289.49,-0.92,0.05,-1.07,0.42,0.93,-0.3,
52.27034, 19:50:42.373,112.4,154.63,289.49,-2.6,0.9,-0.27,0.38,0.9,-0.26,
52.32239, 19:50:42.448,105.85,156.03,296.3,-1.81,1.5,-1.21,0.37,0.89,-0.22,
52.39626, 19:50:42.507,105.58,156.01,296.67,0.61,1.92,-2.19,0.36,0.9,-0.22,
52.45554, 19:50:42.562,105.33,156,297.04,0.88,2.02,-1.48,0.35,0.91,-0.21,
52.50997, 19:50:42.633,105.09,155.99,297.42,1.5,0.95,-0.11,0.41,0.9,-0.22,
52.58137, 19:50:42.699,105.09,155.99,297.42,1.33,0.17,0.18,0.47,0.86,-0.2,
52.64654, 19:50:42.750,103.07,156.7,305.2,1.73,-0.32,-0.09,0.49,0.88,-0.24,
52.69866, 19:50:42.820,103.15,156.62,304.99,1.56,-0.58,-0.5,0.42,0.84,-0.26,
52.7692, 19:50:42.895,103.27,156.53,304.71,-0.26,-0.43,-0.37,0.4,0.89,-0.24,
52.84419, 19:50:42.945,103.4,156.45,304.39,0.15,-0.96,-0.4,0.39,0.89,-0.22,
52.89319, 19:50:43.003,103.4,156.45,304.39,-1.11,0.03,-0.28,0.4,0.9,-0.24,
52.95142, 19:50:43.073,103.89,156.19,300.21,-0.01,0.03,-0.5,0.46,0.96,-0.28,
53.0225, 19:50:43.147,103.74,156.17,300.36,0.76,-0.3,-0.79,0.56,0.93,-0.29,
53.0955, 19:50:43.202,103.62,156.16,300.48,-0.43,0.37,-0.7,0.59,0.97,-0.23,
53.15041, 19:50:43.270,103.53,156.15,300.55,0.43,1.21,-1.33,0.54,0.99,-0.29,
53.21756, 19:50:43.345,103.53,156.15,300.55,0.15,3.49,-2.42,0.53,1.25,-0.37,
53.29284, 19:50:43.382,101.92,156.11,304.82,4.71,0.21,-3.05,0.38,1.31,-0.28,
53.33007, 19:50:43.452,101.71,156.28,305.71,7.89,-3.5,-2.32,0.5,0.87,-0.05,
53.39974, 19:50:43.521,101.53,156.49,306.56,8.7,-3.84,-0.56,0.54,0.44,-0.03,
53.46913, 19:50:43.572,101.41,156.71,307.27,6.02,-3.44,2.83,0.47,0.43,-0.09,
53.52037, 19:50:43.647,101.41,156.71,307.27,2.18,-3.51,5.05,0.46,0.56,-0.11,
53.59551, 19:50:43.704,115.35,155.92,281.71,-1.56,-4.24,3.99,0.41,0.71,-0.14,
53.65226, 19:50:43.769,115.54,155.58,280.75,-1.66,-5.52,2.06,0.25,0.83,-0.23,
53.7178, 19:50:43.830,115.69,155.26,279.83,0.05,-5.63,1.49,0.14,0.97,-0.36,
53.77775, 19:50:43.897,115.77,154.97,278.93,-2.89,-3.5,1.18,0.02,1.03,-0.43,
53.84565, 19:50:43.949,115.77,154.97,278.93,-14.24,5.67,1.47,0.12,1,-0.5,
53.89826, 19:50:44.019,110.01,155.8,251.96,1.07,0.3,-0.2,0.08,0.89,-0.38,
53.96754, 19:50:44.086,108.58,155.61,252.19,0.46,-1.28,-1.15,0.26,0.97,-0.39,
54.03381, 19:50:44.151,107.39,155.48,252.41,-3.69,-0.04,-1.71,0.35,0.93,-0.32,
54.0991, 19:50:44.220,106.56,155.42,252.62,0.18,-0.04,-2,0.42,0.9,-0.26,
54.16755, 19:50:44.275,106.56,155.42,252.62,0.92,1.03,-1.35,0.38,0.93,-0.26,
54.22364, 19:50:44.344,104.66,158.72,247.03,1.13,0.92,-0.99,0.34,0.93,-0.24,
54.29346, 19:50:44.402,104.65,158.76,247.34,-0.42,1.55,-0.89,0.33,0.89,-0.22,
54.35017, 19:50:44.472,104.66,158.8,247.61,-0.85,2.04,-0.92,0.35,0.88,-0.19,
54.42065, 19:50:44.545,104.69,158.85,247.87,-1.51,2.58,-1.51,0.34,0.92,-0.21,
54.49463, 19:50:44.594,104.69,158.85,247.87,0.37,1.44,-2.52,0.35,0.95,-0.18,
54.5426, 19:50:44.670,101.02,159.98,260.96,0.72,1.36,-2.27,0.35,0.95,-0.15,
54.61893, 19:50:44.726,100.9,160.12,261.63,0.64,1.69,-1.86,0.35,0.94,-0.14,
54.67625, 19:50:44.793,100.77,160.24,262.34,1.13,1.81,-1.81,0.3,0.93,-0.16,
54.74124, 19:50:44.870,100.64,160.36,263.12,0.89,1.74,-1.57,0.31,0.94,-0.15,
54.81738, 19:50:44.920,100.64,160.36,263.12,0.62,1.41,-1.55,0.32,0.93,-0.15,
54.8679, 19:50:44.971,99.29,162.54,282.89,0.51,1.23,-1.16,0.32,0.91,-0.12,
54.92018, 19:50:45.044,99.22,162.59,283.56,0.19,1.01,-0.75,0.32,0.94,-0.12,
54.99323, 19:50:45.103,99.13,162.63,284.23,0.18,0.57,-0.53,0.3,0.96,-0.11,
55.05191, 19:50:45.170,99.06,162.67,284.92,-0.2,0.52,-0.56,0.29,0.97,-0.1,
55.11797, 19:50:45.220,99.06,162.67,284.92,0.08,0.97,-0.36,0.32,0.97,-0.12,
55.16762, 19:50:45.294,96.73,162.69,296.79,0.89,0.83,-0.44,0.29,0.97,-0.14,
55.24331, 19:50:45.359,96.66,162.67,297.28,1.06,0.9,-0.47,0.25,0.95,-0.12,
55.30803, 19:50:45.399,96.6,162.64,297.76,1.04,1.28,-0.4,0.29,0.95,-0.12,
55.34812, 19:50:45.473,96.55,162.63,298.13,0.4,1.17,-0.37,0.35,0.95,-0.1,
55.42167, 19:50:45.524,96.55,162.63,298.13,0.96,0.64,-0.31,0.37,0.95,-0.08,
55.47306, 19:50:45.595,96.04,162.12,306.31,1.08,0.54,-0.63,0.34,0.92,-0.08,
55.54251, 19:50:45.647,96.03,162.08,306.41,1.43,0.29,-0.95,0.33,0.91,-0.08,
55.59564, 19:50:45.699,96.02,162.05,306.52,0.65,0.34,-0.67,0.31,0.91,-0.07,
55.64817, 19:50:45.772,96.01,162.02,306.66,0.52,0.02,-0.07,0.3,0.94,-0.07,
55.9815, 19:50:46.446,96.01,162.02,306.66,-0.07,0.07,-0.06,0.32,0.94,-0.09,
55.99817, 19:50:46.460,95.51,161.72,308.64,0.19,-0.32,-0.14,0.33,0.95,-0.1,
56.01484, 19:50:46.477,95.44,161.68,308.82,-0.73,-0.21,-0.15,0.32,0.96,-0.08,
56.0315, 19:50:46.493,95.37,161.65,309.01,-1.42,0.56,-0.01,0.32,0.95,-0.07,
56.04817, 19:50:46.510,95.29,161.61,309.21,0.06,0.11,0.14,0.32,0.94,-0.07,
56.06483, 19:50:46.527,95.29,161.61,309.21,0.11,0.11,0.45,0.33,0.91,-0.05,
56.0815, 19:50:46.543,93.01,160.5,316.75,0.02,0.66,0.44,0.35,0.93,-0.05,
56.09817, 19:50:46.560,92.95,160.42,317,0.76,0.79,-0.41,0.37,0.94,-0.06,
56.11483, 19:50:46.577,92.89,160.33,317.26,5.21,-0.32,-3.4,0.51,0.94,-0.02,
56.13234, 19:50:46.594,92.82,160.24,317.64,8.07,-1.96,-11.5,0.38,0.97,-0.05,
56.149, 19:50:46.611,92.82,160.24,317.64,0.72,-0.86,-11.5,0.29,1.08,-0.04,
56.16567, 19:50:46.628,98.36,169.35,298.75,3.04,-4.77,-1.53,0.32,1.02,-0.1,
56.18234, 19:50:46.644,98.23,170.11,299.52,2.16,-5.92,6.85,0.3,0.94,-0.07,
56.19901, 19:50:46.661,98.11,170.77,300.07,3.16,-6.15,10.28,0.27,0.96,-0.08,
56.2163, 19:50:46.698,98.06,171.32,300.08,1.89,-4.62,9.26,0.1,0.96,-0.18,
56.24204, 19:50:46.773,98.06,171.32,300.08,-1.98,-1.68,5.56,-0.04,0.98,-0.31,
56.31784, 19:50:46.822,103.04,158.96,227.28,-1.87,0.15,0.84,0.07,0.99,-0.46,
56.3662, 19:50:46.893,102.93,158.74,225.83,0.34,0.34,-2.45,0.21,0.92,-0.35,
56.43753, 19:50:46.970,102.82,158.58,224.55,1.89,1.98,-3.22,0.14,1.03,-0.19,
56.51407, 19:50:47.020,102.73,158.48,223.45,-0.33,6.18,-0.21,0,1.51,-0.3,
56.56352, 19:50:47.074,102.73,158.48,223.45,-0.15,5.24,4.32,0.16,1.38,-0.18,
56.61725, 19:50:47.144,99.29,161.23,240.42,2.92,3.05,6.03,0.52,0.93,-0.12,
56.68951, 19:50:47.198,99.26,160.87,242,4.05,4.79,3.1,0.65,0.8,-0.14,
56.74222, 19:50:47.284,99.36,160.45,243.52,6.35,2.12,-1.04,0.62,0.79,-0.11,
56.82736, 19:50:47.344,99.54,159.98,244.93,4.75,1.08,-4.6,0.53,0.83,-0.14,
56.88984, 19:50:47.394,99.54,159.98,244.93,1.13,1.36,-5.31,0.53,0.81,-0.13,
56.93863, 19:50:47.450,104.17,155.71,274.72,1.25,1,-3.24,0.48,0.86,-0.08,
56.99487, 19:50:47.522,104.07,155.97,275.48,-1.43,2.81,-2.31,0.43,0.76,-0.09,
57.06758, 19:50:47.580,104,156.21,276.13,3.14,1.82,-0.73,0.46,0.79,-0.07,
57.12672, 19:50:47.645,103.98,156.43,276.67,7.76,-0.39,0.37,0.49,0.83,-0.14,
57.18934, 19:50:47.720,103.98,156.43,276.67,4.97,0.76,1.05,0.39,0.62,-0.21,
57.26411, 19:50:47.771,106.57,155.84,284.28,4.05,0.83,1.24,0.25,0.43,-0.31,
57.31602, 19:50:47.821,106.94,155.67,283.93,5.02,0.03,0.31,0.16,0.31,-0.31,
57.36583, 19:50:47.923,107.3,155.51,283.58,9.08,-1.7,-0.67,0.07,0.31,-0.33,
57.4677, 19:50:47.972,107.68,155.35,283.21,-2.13,3.07,-1.29,0.09,0.4,-0.44,
57.51768, 19:50:48.019,107.68,155.35,283.21,5.63,0.2,-0.84,0.04,0.39,-0.41,
57.56374, 19:50:48.076,116.81,155.59,278.58,2.31,2.61,-1.87,0.46,0.99,-0.36,
57.62039, 19:50:48.144,117.46,155.71,278.26,-7.08,7.6,-2.89,0.69,1.45,-0.33,
57.68906, 19:50:48.201,118.15,155.82,277.95,-0.75,3.28,-3.27,0.71,1.22,-0.21,
57.74466, 19:50:48.269,118.79,155.93,277.72,-2.99,3.73,0.34,1.06,0.95,-0.16,
57.81353, 19:50:48.328,118.79,155.93,277.72,-4.4,3.37,-0.78,0.62,1.11,-0.36,
57.87255, 19:50:48.395,103.42,153.51,305.61,-4.17,3.83,-0.76,0.71,1.06,-0.16,
57.93855, 19:50:48.447,102.9,153.44,306.53,-6.25,4.19,1.63,0.57,0.96,-0.31,
57.99201, 19:50:48.525,102.35,153.36,307.54,2.37,0.32,0.57,0.51,1.22,-0.09,
58.06818, 19:50:48.594,101.78,153.28,308.61,-1.5,1.47,0.84,0.53,1.2,-0.26,
58.13831, 19:50:48.647,101.78,153.28,308.61,3.95,-1.51,-0.58,0.22,1.24,-0.08,
58.19186, 19:50:48.719,95.87,151.31,319.21,1.9,-0.76,0.58,-0.11,0.98,0.01,
58.26365, 19:50:48.769,96.05,151.5,319,5.32,-1.88,0.07,0.19,0.91,0.08,
58.31359, 19:50:48.848,96.06,151.68,319.1,3.35,0.4,-2,0.51,0.67,-0.01,
58.39322, 19:50:48.897,95.96,151.86,319.4,2.18,2.59,-2.71,0.68,0.63,-0.18,
58.4407, 19:50:48.954,95.96,151.86,319.4,3.09,2.63,-2.49,0.77,0.66,-0.24,
58.49712, 19:50:49.020,99.82,153.53,315.37,0.98,2.92,-1.36,0.89,0.67,-0.3,
58.56378, 19:50:49.071,99.93,153.47,315.32,2.42,1.59,-0.82,0.95,0.62,-0.35,
58.61469, 19:50:49.124,100.04,153.39,315.27,2.82,0.05,-2.24,0.76,0.72,-0.3,
58.66737, 19:50:49.203,100.11,153.31,315.27,1.27,-0.92,-1.67,0.47,0.8,-0.24,
58.74751, 19:50:49.268,100.11,153.31,315.27,0.08,-2.46,0.55,0.4,0.85,-0.17,
58.81197, 19:50:49.321,103.13,151.42,310.3,1.7,-4.14,1.99,0.4,0.9,-0.2,
58.86581, 19:50:49.394,103.28,151.41,309.87,-0.9,-2.94,1.4,0.5,0.92,-0.2,
58.93838, 19:50:49.447,103.5,151.39,309.32,-1.55,-1.1,-0.73,0.59,1.15,-0.31,
58.9912, 19:50:49.532,103.78,151.35,308.65,-1.37,-1.01,-2.23,0.6,1.44,-0.4,
59.07629, 19:50:49.571,103.78,151.35,308.65,6.42,-4.27,-0.98,0.45,1.36,-0.29,
59.11536, 19:50:49.647,105.08,153.26,300.68,2.51,-3.01,0.39,0.47,1.2,-0.2,
59.19168, 19:50:49.694,105.74,153.47,299.49,5.6,-4.16,0.77,0.47,1.14,-0.16,
59.23845, 19:50:49.769,106.37,153.66,298.33,10.17,-5.02,0.04,0.34,0.85,-0.09,
59.31359, 19:50:49.838,106.9,153.81,297.3,15.84,-6.94,-0.43,0.17,0.56,-0.2,
59.38209, 19:50:49.894,106.9,153.81,297.3,6.47,-2.66,0.21,0.02,0.13,-0.3,
59.43865, 19:50:49.950,106.9,153.81,297.3,-0.04,0.42,0.19,-0.03,-0.07,-0.33,
59.49503, 19:50:50.022,128.87,158.22,271.06,-9.19,4.9,-0.36,0.07,0.06,-0.4,
59.56602, 19:50:50.095,128.77,158.15,271.06,-7.8,4.83,-0.03,0.25,0.38,-0.27,
59.63878, 19:50:50.147,128.49,158.05,271.14,-12.31,6.72,-0.41,0.34,0.68,-0.22,
59.69192, 19:50:50.223,128.06,157.91,271.29,-10.4,5.74,-0.35,0.53,1.03,-0.14,
59.76704, 19:50:50.271,128.06,157.91,271.29,-8.14,4.9,-1.6,0.55,1.21,-0.06,
59.8145, 19:50:50.332,98.4,152.91,309.15,-4.53,3.82,-2.53,0.46,1.38,-0.02,
59.87616, 19:50:50.396,97.51,153,311.52,-3.82,4.24,-1.63,0.29,1.44,0.09,
59.9394, 19:50:50.478,96.66,153.11,313.79,0.98,2.98,-0.93,-0.05,1.41,0.18,
60.02308, 19:50:50.522,95.88,153.26,316.05,3.12,3.58,0.31,-0.02,1.16,0.26,
60.06595, 19:50:50.595,95.88,153.26,316.05,6.31,3.37,-0.09,0.27,1.01,0.26,
60.13845, 19:50:50.645,88.38,20.93,342.75,6.63,3.2,-0.69,0.58,0.89,0.22,
60.18816, 19:50:50.705,88.57,20.93,342.27,3.59,4.72,-0.2,0.84,0.74,0.06,
60.24888, 19:50:50.757,88.73,20.98,341.8,1.25,4.97,0.36,1.06,0.59,-0.18,
60.3015, 19:50:50.820,88.86,21.07,341.37,0.41,4.13,-0.31,1.09,0.61,-0.39,
60.36491, 19:50:50.875,88.86,21.07,341.37,2.04,1.09,-0.18,0.98,0.67,-0.36,
60.42022, 19:50:50.944,88.86,21.07,341.37,0.47,-1.12,-0.56,0.82,0.71,-0.27,
60.48887, 19:50:50.997,92.39,150.42,327.04,1.66,-4.37,-1.2,0.92,0.75,-0.15,
60.54168, 19:50:51.070,92.61,150.28,326.56,4.87,-5.9,-1.24,0.75,0.76,-0.05,
60.61433, 19:50:51.126,92.88,150.15,326.02,1.94,-3.53,-1.25,0.55,0.82,-0.01,
60.66992, 19:50:51.203,93.16,150.03,325.46,0.94,-2.92,-0.4,0.27,0.9,-0.03,
60.74722, 19:50:51.252,93.16,150.03,325.46,-2.69,-2.25,0.34,0.12,1.03,-0.07,
60.7969, 19:50:51.312,99.37,151.06,312.92,0.4,-3.98,0.41,0.03,1.06,-0.03,
60.85592, 19:50:51.380,99.12,151.18,313.21,-0.37,-3.18,0.69,0.2,1.01,-0.01,
60.92392, 19:50:51.445,98.91,151.31,313.47,-1.19,-1.6,1.15,0.27,0.91,-0.06,
60.98884, 19:50:51.497,98.77,151.46,313.59,-0.21,-0.74,1.67,0.42,0.95,-0.07,
61.04081, 19:50:51.569,98.77,151.46,313.59,-0.5,0.37,0.95,0.54,1.1,-0.19,
61.11263, 19:50:51.625,97.69,151.57,309.94,-1.65,1.05,-0.34,0.73,1.57,-0.32,
61.16903, 19:50:51.700,97.55,151.48,310.19,6.32,-2.79,-1.5,0.82,1.66,-0.21,
61.24373, 19:50:51.758,97.35,151.42,310.6,13.82,-6.38,-1.89,0.66,1.3,-0.07,
61.3028, 19:50:51.806,97.11,151.36,311.14,14.85,-6.96,-2.63,0.53,0.95,-0.03,
61.34999, 19:50:51.895,97.11,151.36,311.14,13.2,-5.9,-3.05,0.34,0.65,-0.09,
61.43868, 19:50:51.945,118.05,157.14,278.29,14.42,-6.4,-2.54,0.21,0.44,-0.2,
61.48912, 19:50:51.999,119.04,157.52,277.55,7.44,-3.18,-2.44,0.15,0.36,-0.42,
61.54239, 19:50:52.074,120.04,157.89,276.86,6.16,-1.42,-3.47,0.14,0.25,-0.54,
61.61698, 19:50:52.145,121.07,158.27,276.17,1.69,0.26,-1.98,0.11,0.26,-0.6,
61.68983, 19:50:52.195,121.07,158.27,276.17,-0.13,1.25,-0.11,0.07,0.31,-0.67,
61.73896, 19:50:52.250,136.2,165.18,271.28,-2.49,2.21,1.14,0.1,0.36,-0.65,
61.79442, 19:50:52.320,136.16,165.11,271.28,-6.16,3.82,1.41,0.2,0.5,-0.61,
61.86503, 19:50:52.396,136.09,165.01,271.28,-4.29,2.99,1.1,0.27,0.54,-0.5,
61.9462, 19:50:52.446,135.99,164.89,271.27,-7.47,4.55,1.11,0.27,0.56,-0.4,
61.98986, 19:50:52.518,135.99,164.89,271.27,-8.34,5.02,1.14,0.32,0.63,-0.33,
62.06321, 19:50:52.572,121.31,157.46,277.17,-8.11,5.21,1.13,0.41,0.75,-0.22,
62.11629, 19:50:52.647,120.41,157.12,277.82,-8.94,5.73,1.15,0.5,0.87,-0.12,
62.19121, 19:50:52.695,119.5,156.77,278.49,-8.05,5.44,1.5,0.53,0.93,-0.06,
62.23833, 19:50:52.750,118.56,156.43,279.26,-8.04,5.32,1.2,0.61,1.12,-0.05,
62.29666, 19:50:52.820,118.56,156.43,279.26,-6.89,4.79,0.47,0.73,1.25,-0.02,
62.36626, 19:50:52.873,91.4,149.5,325.77,-4.16,3.22,-0.82,0.77,1.4,0.02,
62.41795, 19:50:52.946,90.58,149.42,327.88,-1.67,2.1,-1.71,0.93,1.68,0.03,
62.49029, 19:50:52.998,89.78,30.63,329.94,6.03,-1.74,-2.97,0.92,1.77,0.1,
62.54207, 19:50:53.069,89.02,30.66,331.93,11.4,-4.73,-3.45,0.75,1.45,0.14,
62.61314, 19:50:53.120,89.02,30.66,331.93,10.11,-4.39,-3.74,0.59,1.15,0.17,
62.66599, 19:50:53.183,96.28,153.99,317.64,9.42,-3.27,-3.65,0.46,0.85,0.16,
62.72756, 19:50:53.243,96.99,154.27,316.14,8.73,-2.03,-2.37,0.29,0.55,0.04,
62.78708, 19:50:53.319,97.65,154.54,314.76,6.09,-0.98,-0.44,0.17,0.36,-0.15,
62.86495, 19:50:53.369,98.3,154.8,313.46,4.18,-1.1,1.44,0.16,0.36,-0.32,
62.91371, 19:50:53.426,98.3,154.8,313.46,2.69,-1.02,1.63,0.22,0.46,-0.42,
62.97004, 19:50:53.495,112.3,156.31,290.76,3.36,-1.78,1.36,0.31,0.59,-0.47,
63.03936, 19:50:53.549,112.62,156.21,290.19,2.65,-1.45,0.73,0.33,0.66,-0.48,
63.09232, 19:50:53.622,112.93,156.11,289.62,2.25,-1.01,0.46,0.41,0.74,-0.45,
63.1664, 19:50:53.682,113.25,156.02,289.03,1.8,-0.69,0.07,0.4,0.75,-0.48,
63.22688, 19:50:53.744,113.25,156.02,289.03,1.6,-0.61,-0.1,0.38,0.75,-0.47,
63.28867, 19:50:53.819,119.64,155.43,278.71,1.42,-0.24,-0.38,0.41,0.75,-0.47,
63.36487, 19:50:53.869,119.73,155.44,278.57,0.79,0.34,-0.79,0.41,0.77,-0.48,
63.41426, 19:50:53.926,119.78,155.43,278.46,1.28,0.21,-0.88,0.39,0.81,-0.48,
63.47001, 19:50:53.998,119.83,155.43,278.36,1.38,0.21,-0.72,0.4,0.8,-0.47,
63.54276, 19:50:54.050,119.83,155.43,278.36,1.18,0.26,-0.64,0.41,0.8,-0.47,
63.59578, 19:50:54.120,120.8,155.99,277.95,1.36,0.11,-0.52,0.42,0.8,-0.47,
63.66526, 19:50:54.175,120.8,156,277.97,0.86,0.31,-0.56,0.41,0.8,-0.49,
63.72037, 19:50:54.245,120.8,156,277.99,1.29,0.05,-0.6,0.42,0.8,-0.49,
63.78876, 19:50:54.324,120.78,156,278.01,0.95,0.25,-0.72,0.42,0.79,-0.48,
63.86921, 19:50:54.369,120.78,156,278.01,0.69,0.4,-0.77,0.4,0.79,-0.48,
63.91514, 19:50:54.425,121.29,156.19,277.82,1.22,0.07,-0.79,0.41,0.8,-0.48,
63.97014, 19:50:54.497,121.27,156.2,277.86,0.97,0.16,-0.64,0.4,0.77,-0.49,
64.04105, 19:50:54.547,121.25,156.22,277.9,1.03,0.09,-0.52,0.4,0.79,-0.49,
64.09106, 19:50:54.622,121.25,156.24,277.91,1.37,-0.08,-0.54,0.4,0.8,-0.5,
64.16714, 19:50:54.693,121.25,156.24,277.91,1.57,-0.11,-0.33,0.39,0.78,-0.5,
64.23734, 19:50:54.750,122.28,156.66,276.99,1.94,-0.27,-0.08,0.4,0.77,-0.52,
64.29363, 19:50:54.822,122.35,156.66,276.92,3.01,-0.68,-0.23,0.37,0.72,-0.56,
64.36703, 19:50:54.871,122.43,156.67,276.83,2.32,-0.1,-0.81,0.31,0.57,-0.61,
64.41483, 19:50:54.960,122.5,156.67,276.75,-0.37,1.43,-1.47,0.28,0.56,-0.62,
64.50391, 19:50:54.998,122.5,156.67,276.75,-1.85,2.3,-1.27,0.32,0.63,-0.57,
64.54247, 19:50:55.070,125,157.33,276.12,-1.4,1.95,-0.7,0.26,0.44,-0.45,
64.61362, 19:50:55.122,124.74,157.28,276.4,-0.25,1.11,-2.47,0.02,0.04,-0.12,
64.66672, 19:50:55.195,124.44,157.23,276.69,-0.64,-2.37,-4.77,-0.07,-0.42,0.34,
64.73882, 19:50:55.271,124.12,157.17,277,-8.92,3.38,0.21,-0.14,-0.3,0.77,
64.81498, 19:50:55.322,124.12,157.17,277,-16.72,8.55,1.79,0.48,0.52,0.36,
64.86703, 19:50:55.373,108.24,155.97,295.59,-9.45,6.74,4.31,1.31,2,0.01,
64.91726, 19:50:55.436,106.37,155.29,298.28,-7.07,1.14,-1.46,1.01,2,-0.3,
64.97984, 19:50:55.520,104.58,154.66,301.17,-5.56,3.44,1.37,1,1.62,-0.29,
65.06396, 19:50:55.603,102.83,154,304.16,-1.06,3.28,0.48,0.71,1.31,-0.31,
65.14841, 19:50:55.644,102.83,154,304.16,-1.6,2.94,0.32,0.6,1.09,-0.2,
65.18947, 19:50:55.696,86.8,30.48,337.24,1.74,0.24,-0.23,0.52,1.03,-0.1,
65.24181, 19:50:55.747,86.81,30.51,337.13,1.3,-0.51,-1.21,0.54,0.94,-0.04,
65.29124, 19:50:55.799,86.94,30.55,336.75,1.42,-0.67,-1.4,0.48,0.88,0.02,
65.34399, 19:50:55.872,87.16,30.59,336.18,3.85,-1.84,-1.6,0.46,0.87,0.07,
65.41645, 19:50:55.922,87.16,30.59,336.18,4.43,-1.81,-1.53,0.42,0.73,0.15,
65.46696, 19:50:56.005,91.68,151.12,326.88,-2.07,2.36,-0.48,0.32,0.46,0.26,
65.55035, 19:50:56.049,92.02,151.2,326.09,-10.32,5.85,-0.68,0.42,0.9,0.16,
65.59395, 19:50:56.108,92.36,151.27,325.3,-2.04,1.17,-1.17,0.64,1.24,-0.13,
65.65232, 19:50:56.194,92.64,151.33,324.68,3.1,-1.13,-2.15,0.74,1.34,-0.22,
65.73925, 19:50:56.241,92.64,151.33,324.68,2.46,-1.13,-2.11,0.71,1.55,-0.19,
65.78518, 19:50:56.297,85.62,27.05,344.25,-1.07,0.44,-2.95,0.75,1.44,0.17,
65.84119, 19:50:56.372,85.94,26.89,343.66,7.11,-2.47,-3.89,0.44,1.06,-0.35,
65.91673, 19:50:56.425,86.2,26.74,343.2,3.94,-0.03,-1.69,0.54,1.37,-0.38,
65.96995, 19:50:56.486,86.37,26.57,342.96,12.4,-4.47,-0.7,0.66,1.6,0.22,
66.03021, 19:50:56.544,86.37,26.57,342.96,10.84,-3.85,-0.12,0.48,1.11,0.51,
66.08902, 19:50:56.619,100.47,157.06,310.61,14.33,-5.47,0.43,0.3,0.51,0.46,
66.16394, 19:50:56.670,101.08,157.05,309.13,10.37,-4.08,1.06,0.13,0.35,0.1,
66.21481, 19:50:56.744,101.77,157.07,307.13,4.61,-1.79,1.4,0.2,0.38,-0.13,
66.28867, 19:50:56.795,102.74,157.1,305.05,3.11,-0.82,1.6,0.3,0.61,-0.33,
66.33853, 19:50:56.876,102.74,157.1,305.05,-1.65,1.21,-0.18,0.28,0.59,-0.39,
66.42013, 19:50:56.924,116.43,155.75,282.67,-0.49,0.76,-0.85,0.35,0.63,-0.36,
66.46989, 19:50:56.994,116.2,155.71,282.88,-0.28,1.09,-0.64,0.29,0.54,-0.37,
66.53869, 19:50:57.046,115.97,155.69,283.1,0.6,1.05,-0.79,0.27,0.51,-0.4,
66.59095, 19:50:57.119,115.76,155.67,283.32,-0.89,1.49,-0.89,0.38,0.76,-0.41,
66.66432, 19:50:57.194,115.76,155.67,283.32,-0.67,1.26,-0.84,0.45,0.85,-0.4,
66.73856, 19:50:57.246,113.13,155.34,287.51,-0.34,0.94,-0.49,0.45,0.89,-0.36,
66.78998, 19:50:57.296,113,155.33,287.7,2.25,-0.22,-0.18,0.44,0.86,-0.26,
66.84014, 19:50:57.370,112.9,155.32,287.86,4.65,-1.34,0.34,0.38,0.73,-0.04,
66.9136, 19:50:57.429,112.78,155.31,288.04,11.18,-4.79,0.44,0.27,0.5,0.46,
66.97272, 19:50:57.515,112.78,155.31,288.04,7.2,-2.62,-0.44,0.32,0.37,0.33,
67.06009, 19:50:57.548,120.6,155.21,279.9,-5.5,3.81,-1.24,0.35,0.62,-0.51,
67.09241, 19:50:57.622,120.77,155.2,279.77,-11.37,7.37,-1.62,0.54,0.96,-0.9,
67.16837, 19:50:57.673,120.84,155.16,279.75,-9,7.03,-1.92,0.66,1.47,-0.89,
67.21755, 19:50:57.750,120.81,155.13,279.82,-1.08,2.08,-2.29,0.56,1.42,-0.61,
67.29369, 19:50:57.820,120.81,155.13,279.82,5.07,-0.75,-1.25,0.42,1.03,-0.71,
67.36417, 19:50:57.870,105.67,155.16,302.87,7.99,-2.22,0.31,0.31,0.67,-1.03,
67.41413, 19:50:57.945,106.55,155.31,301.62,-8.21,4.21,1.02,0.07,0.33,-2,
67.48852, 19:50:58.004,107.56,155.47,300.17,4.26,-3.48,-3.6,-0.54,-0.62,-2,
67.548, 19:50:58.070,108.66,155.63,298.66,14.71,-17.5,2.52,1.26,1.48,1.58,
67.61434, 19:50:58.156,108.66,155.63,298.66,-23.66,13.71,0.63,2,2,-0.63,
67.70583, 19:50:58.196,121.88,156.45,277.2,32.38,-14.76,1.79,0.79,0.63,0.94,
67.74152, 19:50:58.247,118.26,155.21,280.3,-27.67,13.98,3.47,0.64,0.75,0.94,
67.79125, 19:50:58.306,113.65,154.05,284.79,-2,2.85,-0.27,0.27,0.63,-0.06,
67.84998, 19:50:58.372,109.01,153.18,290.53,-9.02,5.85,-1.53,0.29,0.54,-1,
67.91608, 19:50:58.445,109.01,153.18,290.53,6.36,0.15,-2.11,0.36,0.82,-0.9,
67.98882, 19:50:58.500,94.47,149.9,318.82,3.33,0.66,-2.02,0.36,0.9,-0.68,
68.04366, 19:50:58.574,95.3,150.11,317.14,-0.18,0.32,-0.68,0.33,0.99,-0.39,
68.11853, 19:50:58.624,96.04,150.3,315.72,1.9,-1.17,-0.18,0.25,0.92,-0.3,
68.16917, 19:50:58.696,96.68,150.48,314.53,-0.71,1.45,-0.24,0.21,0.92,-0.22,
68.23972, 19:50:58.750,96.68,150.48,314.53,-3.12,2.89,-1.28,0.17,1.04,-0.14,
68.29379, 19:50:58.810,98.79,153.72,312.53,2.66,0.95,-0.05,0.17,0.96,-0.07,
68.35542, 19:50:58.872,98.35,153.88,313.68,-0.27,2.64,0.16,0.09,0.99,0.04,
68.41579, 19:50:58.945,97.93,154.02,314.78,2.36,2.21,1.99,0.15,0.98,0.2,
68.48937, 19:50:58.997,97.61,154.12,315.66,1.48,2.78,3.26,0.2,1.11,0.23,
68.54108, 19:50:59.048,97.61,154.12,315.66,5.07,1.49,1.6,0.76,0.79,0.27,
68.59323, 19:50:59.120,97.61,154.12,315.66,3.15,3.6,-1.44,1.07,0.34,0.11,
68.66372, 19:50:59.170,93.71,150.39,323.65,-2.06,7.12,-3.37,1.25,0.71,-0.16,
68.71386, 19:50:59.246,93.86,150.14,323.25,4.58,2.73,-2.56,0.94,0.79,-0.28,
68.79004, 19:50:59.295,94.22,149.93,322.55,2.25,2.4,-2.73,0.62,0.74,-0.2,
68.83936, 19:50:59.357,94.6,149.75,321.88,-0.43,3.09,-1.06,0.5,0.87,-0.12,
68.9021, 19:50:59.436,94.6,149.75,321.88,1.73,0.78,-0.02,0.52,0.92,-0.07,
68.97954, 19:50:59.478,92.96,149.31,325.46,0.53,0.68,0.6,0.51,0.87,-0.1,
69.02264, 19:50:59.547,93,149.27,325.38,1,0.52,0.25,0.52,0.87,-0.09,
69.09127, 19:50:59.601,92.99,149.21,325.34,1.05,0.45,-0.11,0.51,0.86,-0.07,
69.14491, 19:50:59.658,92.92,149.14,325.36,0.68,0.26,-0.23,0.52,0.86,-0.05,
69.20351, 19:50:59.724,92.92,149.14,325.36,0.92,-0.12,-0.18,0.52,0.87,-0.05,
69.26801, 19:50:59.795,93.1,147.99,324.06,1.3,-0.02,-0.53,0.51,0.86,-0.05,
69.34037, 19:50:59.846,93.1,147.97,324.03,0.92,0.49,-0.77,0.51,0.86,-0.04,
69.39135, 19:50:59.904,93.11,147.96,324.01,0.44,0.89,-1.02,0.54,0.84,-0.06,
69.44939, 19:50:59.978,93.1,147.95,324.01,-0.81,1.1,-2.54,0.8,0.84,-0.23,
69.52237, 19:51:00.034,93.1,147.95,324.01,4.81,-1.1,-6.25,0.97,0.51,-0.06,
69.57854, 19:51:00.091,92.82,149.38,325.79,3.56,3.08,-6.71,0.62,0.72,0.06,
69.63567, 19:51:00.154,93.31,149.63,325.42,-0.38,5.85,-4.8,0.49,0.86,0.03,
69.69927, 19:51:00.220,93.78,149.89,325.09,-1.13,0.18,-2.24,0.27,0.96,-0.1,
69.76397, 19:51:00.275,94.13,150.18,324.96,-1.51,-3.21,-1.24,0.76,0.78,0,
69.81856, 19:51:00.347,94.13,150.18,324.96,1.21,-5.11,-0.99,0.73,0.93,0.01,
69.89138, 19:51:00.403,92.58,154.87,331.51,-4.75,-3.35,1.99,0.34,1.12,-0.04,
69.94721, 19:51:00.469,92.49,154.82,331.51,-5.58,-11.95,4.81,-0.31,1.11,0.35,
70.01386, 19:51:00.522,92.36,154.78,331.61,-2.82,-6.85,5.11,0.42,0.98,0.16,
70.06602, 19:51:00.594,92.18,154.7,331.73,4.48,-9.04,1.45,0.32,1.04,0.15,
70.13934, 19:51:00.653,92.18,154.7,331.73,1.65,-6.79,-0.53,0.14,0.97,0.11,
70.19767, 19:51:00.728,92.39,150.07,323.76,1.75,-5.31,-1.34,0.05,0.99,0,
70.2728, 19:51:00.777,92.72,150.27,322.89,-2.28,-1.45,-1.21,-0.13,1.03,-0.01,
70.32125, 19:51:00.846,93.11,150.5,321.83,-2.39,1.87,-1.6,-0.37,1.25,-0.02,
70.3904, 19:51:00.900,93.57,150.77,320.55,1.49,3.92,-1.05,-0.4,1.14,0.13,
70.44421, 19:51:00.972,93.57,150.77,320.55,-1.89,7.02,-1.11,-0.11,0.95,0.31,
70.51613, 19:51:01.025,88.9,19.11,344.43,6.58,13.69,-3.89,0.55,0.65,0.34,
70.5694, 19:51:01.095,88.36,18.92,346.2,0.6,11.37,-1.29,0.84,0.67,0.4,
70.64006, 19:51:01.147,87.88,18.81,347.55,2.57,8.94,-1.64,1,0.83,0.36,
70.69098, 19:51:01.200,87.53,18.79,348.32,1.45,6.49,-1.3,1.05,0.84,0.23,
70.74445, 19:51:01.254,87.53,18.79,348.32,1.11,4.27,-0.19,0.87,0.8,0.01,
70.7989, 19:51:01.322,80.17,21.5,350.79,-0.27,4.08,0.76,0.77,0.85,-0.1,
70.86665, 19:51:01.395,80.22,21.71,350.39,1.32,2.6,1.14,0.57,0.87,-0.02,
70.93994, 19:51:01.446,80.3,21.92,349.95,1.76,1.33,0.44,0.44,0.91,0.02,
70.98992, 19:51:01.498,80.32,22.15,349.58,1.65,0.53,-0.25,0.41,0.91,0.1,
71.0431, 19:51:01.552,80.32,22.15,349.58,0.57,0.58,-0.44,0.43,0.91,0.13,
71.09647, 19:51:01.619,81.14,25.05,344.35,0.24,0.37,-0.82,0.43,0.91,0.15,
71.16384, 19:51:01.674,81.09,25.05,344.41,0.63,0.04,-0.75,0.43,0.89,0.14,
71.21767, 19:51:01.744,81.01,25.04,344.48,0.34,0.15,-0.79,0.42,0.9,0.14,
71.28911, 19:51:01.794,80.93,25.02,344.59,1.05,-0.08,-0.92,0.4,0.91,0.13,
71.33997, 19:51:01.870,80.93,25.02,344.59,0.95,0.05,-0.87,0.41,0.91,0.14,
71.42026, 19:51:01.922,80.62,24.45,345.72,0.93,0.07,-0.8,0.41,0.91,0.15,
71.46668, 19:51:01.995,80.66,24.43,345.71,1.36,-0.19,-0.85,0.4,0.89,0.14,
71.54073, 19:51:02.044,80.71,24.39,345.7,0.49,0.17,-0.73,0.41,0.89,0.14,
71.59002, 19:51:02.119,80.77,24.36,345.67,1.29,-0.26,-1.11,0.41,0.9,0.13,
71.66441, 19:51:02.151,80.77,24.36,345.67,0.95,-0.15,-0.94,0.39,0.9,0.13,
71.69512, 19:51:02.218,81.3,23.68,346.05,0.76,-0.08,-0.89,0.4,0.92,0.14,
71.76264, 19:51:02.276,81.34,23.66,346.05,1.46,-0.34,-0.49,0.39,0.92,0.13,
71.82035, 19:51:02.347,81.38,23.63,346.05,1.12,-0.2,-0.36,0.38,0.94,0.14,
71.89158, 19:51:02.400,81.42,23.6,346.04,1.72,-0.52,-0.48,0.36,0.93,0.14,
71.94399, 19:51:02.469,81.42,23.6,346.04,0.7,-0.25,-0.43,0.39,0.93,0.13,
72.01465, 19:51:02.519,82.75,23.54,344.92,1.14,-0.3,-0.77,0.39,0.89,0.13,
72.06381, 19:51:02.573,82.67,23.54,345.02,0.3,0.27,-0.81,0.39,0.91,0.12,
72.11768, 19:51:02.648,82.56,23.53,345.16,1.16,0.1,-0.71,0.38,0.91,0.11,
72.19323, 19:51:02.699,82.46,23.51,345.3,0.98,0.41,-0.46,0.39,0.91,0.12,
72.24393, 19:51:02.751,82.46,23.51,345.3,1.24,0.25,-0.24,0.39,0.93,0.12,
72.29475, 19:51:02.820,82.63,23.25,345.45,1.27,0.11,-0.22,0.39,0.9,0.11,
72.36453, 19:51:02.895,82.64,23.28,345.41,1.02,0.12,-0.41,0.4,0.89,0.1,
72.43889, 19:51:02.945,82.65,23.3,345.37,0.74,-0.08,-0.81,0.42,0.9,0.09,
72.48941, 19:51:02.994,82.67,23.33,345.32,0.77,-0.57,-1.49,0.49,0.92,0.06,
72.53921, 19:51:03.048,82.67,23.33,345.32,0.75,-1.21,-2.88,0.56,0.96,0.01,
72.59425, 19:51:03.118,83.64,22.99,344.88,1.56,-1.41,-4.27,0.58,1.02,0.03,
72.66265, 19:51:03.173,83.72,22.85,344.95,3.05,-1.79,-5.51,0.58,1.14,0.04,
72.71789, 19:51:03.247,83.82,22.69,345.05,4.19,-2.41,-4.45,0.47,1.16,0.01,
72.792, 19:51:03.292,83.91,22.51,345.15,5.03,-2.6,-2.72,0.41,1.12,0.01,
72.83648, 19:51:03.349,83.91,22.51,345.15,6.7,-3.27,0.05,0.37,1.16,0.01,
72.89298, 19:51:03.401,93.24,163.02,338.16,7.6,-4.1,4.45,0.52,1.04,0.03,
72.94547, 19:51:03.480,93.73,162.91,337.28,6.95,-4.17,7.31,0.55,0.88,0.01,
73.02383, 19:51:03.526,94.21,162.73,336.34,0.99,-1.01,7.95,0.71,0.63,0.1,
73.07013, 19:51:03.599,94.73,162.47,335.29,4.4,-1.31,9.89,0.51,0.32,0.3,
73.14444, 19:51:03.651,94.73,162.47,335.29,3.47,-0.56,7.21,-0.04,0.73,-0.01,
73.19509, 19:51:03.728,104.54,144.09,304.43,-3.67,-2.29,1.21,-0.12,0.92,-0.33,
73.27365, 19:51:03.779,104.67,144.06,303.99,-1.76,-4.52,-3.8,0.16,1.02,-0.44,
73.3236, 19:51:03.846,104.66,144.09,303.84,1.95,-6.05,-3.73,0.23,0.8,-0.36,
73.38981, 19:51:03.922,104.39,143.92,304.14,0.57,-3.9,-2.08,0.25,0.75,-0.36,
73.46645, 19:51:03.977,104.39,143.92,304.14,3.48,-3.22,-2.11,0.16,0.68,-0.38,
73.52133, 19:51:04.044,109.78,154.8,292.3,2.29,-2.08,-2,0.08,0.46,-0.31,
73.58973, 19:51:04.103,110.05,155.08,291.82,-1.32,-0.3,-1.77,0.18,0.52,-0.19,
73.64792, 19:51:04.169,110.25,155.35,291.46,-2.91,0.99,-1.55,0.35,0.78,-0.03,
73.71342, 19:51:04.224,110.4,155.61,291.19,-6.25,3.8,-0.47,0.49,0.91,0.06,
73.76837, 19:51:04.294,110.4,155.61,291.19,-8.54,5.6,-0.34,0.61,1.07,0.12,
73.83936, 19:51:04.346,110.4,155.61,291.19,-8.18,5.33,0.11,0.54,1.07,0.08,
73.89043, 19:51:04.420,91.81,155.78,330.72,-9.53,5.66,0.68,0.54,1.08,0.14,
73.96412, 19:51:04.472,90.9,155.68,333.17,-6.36,3.02,-0.36,0.53,0.98,0.26,
74.01686, 19:51:04.556,90.01,155.55,335.53,-5.89,2.28,-1.49,0.56,0.97,0.29,
74.10074, 19:51:04.602,89.09,24.57,337.95,-5.13,0.98,-2.31,0.55,1,0.28,
74.1463, 19:51:04.659,89.09,24.57,337.95,-3.75,0.05,-1.43,0.45,0.95,0.31,
74.20328, 19:51:04.719,70.76,23.8,21.7,-4.23,0.73,-0.03,0.36,0.89,0.33,
74.26416, 19:51:04.794,70.44,23.76,22.51,-5.32,2.15,1.11,0.4,1,0.35,
74.33897, 19:51:04.824,70.14,23.73,23.26,-4.08,2.28,0.47,0.43,1.02,0.34,
74.36937, 19:51:04.894,69.85,23.71,23.98,-2.03,1.97,0.13,0.45,1.04,0.34,
74.43887, 19:51:04.947,69.85,23.71,23.98,-0.92,1.73,-0.01,0.45,0.99,0.35,
74.49141, 19:51:05.001,60.1,23.53,34.16,1.79,0.54,-0.14,0.44,0.93,0.36,
74.54551, 19:51:05.070,60.08,23.52,34.08,2.63,-0.03,-0.22,0.45,0.86,0.41,
74.616, 19:51:05.122,60.12,23.52,33.94,2.63,-0.07,-0.33,0.43,0.81,0.43,
74.70907, 19:51:05.204,60.18,23.52,33.78,2.08,-0.34,-0.31,0.41,0.81,0.49,
74.74794, 19:51:05.245,60.18,23.52,33.78,2.19,0.15,-0.32,0.41,0.74,0.44,
74.79119, 19:51:05.299,63.47,24.4,28.63,1.36,0.63,-0.27,0.41,0.75,0.44,
74.8449, 19:51:05.380,63.55,24.43,28.45,1.53,0.5,-0.19,0.41,0.79,0.43,
74.92413, 19:51:05.422,63.62,24.45,28.29,1.21,0.63,-0.19,0.41,0.79,0.43,
74.96607, 19:51:05.479,63.67,24.47,28.16,0.96,0.69,-0.07,0.41,0.8,0.41,
75.02397, 19:51:05.544,63.67,24.47,28.16,0.68,0.6,-0.28,0.41,0.8,0.4,
75.08925, 19:51:05.603,63.43,24.79,26.16,0.85,0.24,-0.61,0.43,0.82,0.42,
75.14804, 19:51:05.659,63.38,24.79,26.16,0.66,0.25,-0.73,0.43,0.86,0.39,
75.20408, 19:51:05.704,63.33,24.8,26.19,1.28,0.02,-0.46,0.5,1,0.27,
75.24894, 19:51:05.769,63.29,24.8,26.2,3.21,-0.95,-0.72,0.46,1.01,0.25,
75.31412, 19:51:05.841,63.29,24.8,26.2,2.98,-0.32,0.04,0.7,1.43,0.05,
75.38543, 19:51:05.877,67.52,25.3,21.61,9.56,-3.59,0.02,0.78,1.59,0.06,
75.42171, 19:51:05.947,67.86,25.38,21.09,16.81,-8.01,-1.83,1.01,1.91,0.19,
75.49129, 19:51:05.997,68.23,25.45,20.5,15.67,-7.85,-3.58,0.81,1.62,0.5,
75.54192, 19:51:06.072,68.7,25.58,19.74,22.92,-10.87,-5.35,0.61,1.21,0.77,
75.61725, 19:51:06.121,68.7,25.58,19.74,7.79,-2.51,-3.53,0.32,0.42,0.75,
75.66535, 19:51:06.195,103.88,158.26,300.1,5.31,0.11,-2.95,0.03,-0.18,0.48,
75.73879, 19:51:06.247,103.95,158.42,300.12,1.11,2.56,-2.54,0,-0.01,-0.05,
75.79164, 19:51:06.320,103.94,158.55,300.31,3.85,1.37,-1.32,0.06,0.48,-0.08,
75.86435, 19:51:06.395,103.94,158.69,300.5,1.06,2.03,0.49,0.24,0.6,0.31,
75.93859, 19:51:06.445,103.94,158.69,300.5,3.99,1.53,1.73,0.24,0.52,0.35,
75.98872, 19:51:06.493,104.61,159.93,306.64,1.08,1.34,1.73,0.33,0.56,0.04,
76.03763, 19:51:06.552,104.51,159.67,306.88,-4.93,3.31,2.34,0.45,0.9,-0.64,
76.1003, 19:51:06.644,104.31,159.38,307.26,-4.99,3.69,1.67,0.67,1.32,-1.14,
76.19537, 19:51:06.695,104.04,159.09,307.72,-2,1.39,-0.53,0.39,1.17,-1.53,
76.24101, 19:51:06.748,104.04,159.09,307.72,4.07,-1.3,0.62,0.38,0.81,-1.77,
76.29443, 19:51:06.820,107.21,155.32,300.7,-5.34,-0.08,0.53,0.27,0.8,-2,
76.3645, 19:51:06.872,108.16,155.35,299.18,25.65,-14.78,1.65,-0.05,-0.06,-0.59,
76.41675, 19:51:06.947,108.92,155.37,297.92,11.6,-8.56,2.66,2,2,2,
76.49136, 19:51:06.997,109.47,155.4,296.96,-40.12,19.33,0.34,0.49,0.75,0.68,
76.54178, 19:51:07.072,109.47,155.4,296.96,29.7,-15.93,-0.72,0.6,1.19,0.83,
76.61665, 19:51:07.128,118.46,153.87,278.29,-19.92,9.93,-0.15,0.09,0.24,-0.01,
76.67327, 19:51:07.197,118.79,153.98,277.78,-10.02,6.63,-0.68,0.33,0.89,-0.7,
76.74179, 19:51:07.248,117.64,153.77,278.54,-1.24,3.43,-1.92,0.48,1.04,-0.75,
76.79263, 19:51:07.321,115.45,153.29,280.35,3.22,1.36,-2.5,0.46,0.97,-0.62,
76.86523, 19:51:07.378,115.45,153.29,280.35,2.27,1.13,-1.74,0.42,0.97,-0.51,
76.92443, 19:51:07.445,102.55,154.21,304.65,0.37,0.86,-1.16,0.42,0.95,-0.35,
76.98892, 19:51:07.520,102.64,154.3,304.64,2.63,-0.55,-1.29,0.43,0.89,-0.29,
77.06394, 19:51:07.570,102.66,154.38,304.78,-0.49,0.91,-0.85,0.36,0.89,-0.25,
77.11431, 19:51:07.648,102.61,154.45,305,-0.2,1.66,-1.47,0.3,0.93,-0.2,
77.19678, 19:51:07.706,102.61,154.45,305,-1.15,3.44,-0.62,0.17,1.01,-0.22,
77.25025, 19:51:07.761,101.73,156.37,309.47,-0.76,4.66,-1.08,0.1,0.93,-0.21,
77.30541, 19:51:07.821,101.43,156.44,310.33,0.48,6.08,-0.93,0.28,0.91,0,
77.36517, 19:51:07.894,101.1,156.51,311.25,-0.73,8.43,-1.6,0.48,1.01,0.08,
77.43899, 19:51:07.949,100.75,156.58,312.21,1.21,7.13,-0.35,0.43,0.93,0.15,
77.49395, 19:51:08.003,100.75,156.58,312.21,-2.53,8.66,0.35,0.3,1.03,0.15,
77.54858, 19:51:08.074,89.27,23.31,337.69,4.73,5.15,-0.82,0.35,0.96,0.1,
77.6192, 19:51:08.127,88.78,23.3,338.33,2.22,4.15,0.25,0.27,0.83,0.09,
77.67208, 19:51:08.195,88.49,23.28,338.7,3.15,0.82,1.47,0.43,0.85,0.05,
77.73899, 19:51:08.244,88.43,23.25,338.78,3.89,-0.26,2.26,0.85,0.62,-0.08,
77.78954, 19:51:08.319,88.43,23.25,338.78,-1.14,2.7,2.14,0.99,0.74,-0.23,
77.86484, 19:51:08.369,88.43,23.25,338.78,0.03,1.16,0.77,0.82,0.79,-0.16,
77.91546, 19:51:08.426,89.95,30.72,329.33,-1.56,-0.15,-2.54,0.72,0.81,-0.11,
77.97009, 19:51:08.494,89.88,30.86,329.25,-1.18,-3.88,-4.82,0.74,0.71,-0.09,
78.03914, 19:51:08.550,89.77,30.95,329.27,-2.79,-5.69,-5.44,0.68,0.77,-0.05,
78.09412, 19:51:08.620,89.66,30.97,329.36,-2.16,-8.04,-5.34,0.5,0.88,0.08,
78.16409, 19:51:08.677,89.66,30.97,329.36,-0.97,-10.31,-3.31,0.38,0.91,0.12,
78.22154, 19:51:08.745,90.5,155.52,334.66,-1.87,-9.76,-0.69,0.28,0.99,0.13,
78.28878, 19:51:08.795,90.7,155.75,334.51,-1.13,-8.6,3.18,0.33,1.1,0.12,
78.33875, 19:51:08.856,90.89,155.94,334.29,0.44,-5.38,9.63,0.41,1.06,0,
78.40059, 19:51:08.919,91.06,156.13,334.1,6.11,-3.25,19.72,0.51,0.97,0.08,
78.46397, 19:51:09.004,91.06,156.13,334.1,8.82,-1.79,24.46,0.62,0.88,0.14,
78.54925, 19:51:09.041,99.92,135.19,289.1,6.23,1.44,21.31,0.82,0.69,0,
78.58573, 19:51:09.119,100.9,133.32,286.4,3.34,2.19,14.73,0.75,0.52,-0.03,
78.66398, 19:51:09.169,101.89,131.49,283.94,1.61,-0.4,6.48,0.71,0.41,-0.09,
78.71502, 19:51:09.243,102.87,129.7,281.75,0.34,-2,-2.07,0.71,0.38,-0.15,
78.78824, 19:51:09.294,102.87,129.7,281.75,-3.47,-0.56,-9.79,0.78,0.33,-0.18,
78.8391, 19:51:09.368,113.48,114.11,264.94,-2.48,0.41,-12.56,0.87,0.42,-0.15,
78.91337, 19:51:09.422,112.59,114.86,265.46,-0.97,0.23,-14.25,0.74,0.53,-0.14,
78.96686, 19:51:09.479,111.7,115.64,266.04,-2.88,0.41,-18.11,0.78,0.71,-0.16,
79.02266, 19:51:09.549,110.8,116.47,266.74,-5.61,3.11,-17.78,0.71,0.92,-0.08,
79.09262, 19:51:09.620,110.8,116.47,266.74,-9.22,5.95,-10.61,0.67,1.22,-0.06,
79.16441, 19:51:09.682,90.13,149.59,329.05,0.53,1.09,-4.54,0.55,1.23,0.06,
79.2263, 19:51:09.744,89.1,29.66,334.12,1.14,-0.24,-2.33,0.54,1.14,0.12,
79.28909, 19:51:09.801,88.17,28.99,338.69,11.36,-4.74,-2.76,0.49,1.01,0.09,
79.34631, 19:51:09.875,87.39,28.39,342.51,13.54,-4.4,-2.69,0.5,1.07,-0.13,
79.41927, 19:51:09.922,87.39,28.39,342.51,14.63,-4.47,-1.22,0.37,0.91,-0.08,
79.46647, 19:51:09.995,103.92,157.62,291.82,3.54,0.21,0.39,0.13,0.44,-0.22,
79.53945, 19:51:10.052,105.07,157.75,289.78,0.69,0.72,1.29,-0.17,-0.14,-0.45,
79.59623, 19:51:10.120,106.11,157.88,288.11,-1.18,1.54,1.44,-0.29,-0.14,-0.32,
79.66405, 19:51:10.175,107,157.97,286.75,-0.24,0.96,1.21,0.04,0.47,-0.02,
79.71924, 19:51:10.231,107,157.97,286.75,-4.21,4.65,-0.03,0.74,1.23,0.09,
79.77526, 19:51:10.322,107.52,155.73,287.15,-5.3,6.14,0.15,1.04,1.3,-0.1,
79.86703, 19:51:10.372,106.53,155.43,289.04,-0.26,3.57,1.29,1.1,1.11,-0.16,
79.91857, 19:51:10.427,105.43,155.08,291.23,0.79,1.15,-1.11,1.26,0.93,-0.13,
79.97126, 19:51:10.496,104.29,154.73,293.67,1.53,-1.15,-3.56,1.13,0.83,0,
80.04028, 19:51:10.573,104.29,154.73,293.67,2.27,-3.24,-5.37,0.8,0.93,0,
80.11805, 19:51:10.620,98.91,150.22,306.29,-0.66,-2.47,-5.61,0.44,1.02,-0.05,
80.16381, 19:51:10.673,99.07,150.57,305.93,5.87,-6.24,-2.47,0.1,0.99,-0.01,
80.21749, 19:51:10.745,99.15,150.93,305.73,0.96,-3.98,-0.85,0,1.08,-0.07,
80.28971, 19:51:10.801,99.14,151.34,305.77,0.73,-3.27,-0.33,-0.03,1.02,-0.19,
80.34596, 19:51:10.872,99.14,151.34,305.77,0.27,-1.49,1.04,0.01,0.94,-0.25,
80.41747, 19:51:10.924,103.06,159.93,282.02,-1.09,-0.34,2.3,0.21,0.88,-0.19,
80.46931, 19:51:10.997,103.07,159.94,281.45,-1.82,0.4,1.73,0.34,0.83,-0.2,
80.54139, 19:51:11.058,103.08,159.91,280.9,-0.22,0.52,1.38,0.43,0.84,-0.21,
80.60304, 19:51:11.120,103.05,159.85,280.41,0.52,1.18,0.84,0.4,0.82,-0.19,
80.66425, 19:51:11.176,103.05,159.85,280.41,-0.91,0.96,-0.18,0.32,0.88,-0.21,
80.72051, 19:51:11.245,99.69,155.88,281.99,-0.6,0.15,-0.5,0.3,0.95,-0.2,
80.78919, 19:51:11.297,99.6,155.89,282.06,0.66,-0.18,-1.5,0.27,0.96,-0.17,
80.842, 19:51:11.371,99.55,155.93,282.07,0.44,0.27,-2.03,0.27,0.97,-0.19,
80.91567, 19:51:11.447,99.5,155.98,281.96,0.63,0.43,-1.67,0.3,0.94,-0.18,
80.99163, 19:51:11.501,99.5,155.98,281.96,-0.37,1.28,-1.27,0.35,0.92,-0.15,
81.04559, 19:51:11.552,98.02,159.16,286.13,0.44,1.29,-0.74,0.35,0.95,-0.13,
81.09654, 19:51:11.607,97.92,159.21,286.73,-0.37,1.78,-0.72,0.36,0.91,-0.1,
81.15224, 19:51:11.671,97.84,159.25,287.28,-0.25,1.59,-0.78,0.37,0.92,-0.08,
81.21582, 19:51:11.726,97.78,159.28,287.8,-0.61,1.92,-0.57,0.4,0.92,-0.06,
81.27045, 19:51:11.800,97.78,159.28,287.8,-0.57,1.9,-0.37,0.4,0.9,-0.03,
81.34463, 19:51:11.855,93.9,158.97,314.28,0.05,1.69,0,0.38,0.91,-0.02,
81.39925, 19:51:11.925,93.72,158.93,315.47,-0.47,1.89,0.17,0.39,0.92,-0.02,
81.46956, 19:51:11.977,93.55,158.88,316.59,-0.24,1.52,-0.41,0.39,0.93,-0.01,
81.52168, 19:51:12.047,93.4,158.83,317.64,0.18,1.04,-1.39,0.4,0.93,0.01,
81.59348, 19:51:12.097,93.4,158.83,317.64,0.21,0.96,-1.77,0.37,0.93,0,
81.64158, 19:51:12.170,93.4,158.83,317.64,0.47,0.79,-1.74,0.36,0.92,0,
81.71447, 19:51:12.240,89.74,20.75,340.63,0.02,1.05,-1.42,0.36,0.91,0,
81.78545, 19:51:12.276,89.66,20.67,341.12,-0.17,1.11,-1.15,0.36,0.93,0.02,
81.82111, 19:51:12.345,89.58,20.59,341.65,0.07,0.98,-1.11,0.36,0.93,0.03,
81.88938, 19:51:12.397,89.48,20.52,342.23,0.02,0.99,-0.93,0.35,0.94,0.04,
81.94193, 19:51:12.470,89.48,20.52,342.23,-0.11,1.07,-0.9,0.33,0.95,0.05,
82.01414, 19:51:12.522,89.48,20.52,342.23,0.08,1.13,-0.87,0.29,0.96,0.05,
82.06674, 19:51:12.572,86.38,19.16,357.57,0.21,1.1,-0.85,0.25,0.93,0.07,
82.11787, 19:51:12.645,86.27,19.11,358.03,0.6,0.8,-0.82,0.2,1.09,0.07,
82.18933, 19:51:12.699,86.16,19.06,358.47,2.65,-0.39,1.15,0.21,1.45,-0.03,
82.24289, 19:51:12.749,86.04,19.01,358.93,2.7,-0.09,3.44,0.38,1.63,-0.06,
82.29456, 19:51:12.820,86.04,19.01,358.93,9.31,-3.35,2.58,0.54,1.66,0.03,
82.36391, 19:51:12.882,90.49,159.46,337.26,2.5,-0.25,1.83,0.58,1.4,0.16,
82.42657, 19:51:12.950,91.3,159.25,333.46,5.55,-1.08,-0.11,0.57,1.04,0.24,
82.49532, 19:51:12.997,92,159.06,330.14,3.93,0.69,-1.08,0.48,0.8,0.27,
82.54123, 19:51:13.069,92.54,158.86,327.61,7.76,-0.21,-1.24,0.41,0.57,0.11,
82.61408, 19:51:13.120,92.54,158.86,327.61,5.66,0.6,-0.55,0.4,0.5,-0.02,
82.66445, 19:51:13.179,98.72,156.77,308.51,7.96,-0.66,-0.48,0.4,0.5,-0.17,
82.7241, 19:51:13.243,99.13,156.71,307.66,14.85,-4.18,-0.75,0.4,0.54,-0.29,
82.78863, 19:51:13.318,99.64,156.66,306.6,8.66,-1.12,0.03,0.32,0.42,-0.47,
82.86405, 19:51:13.361,100.21,156.61,305.45,5.37,-0.79,0.66,0.34,0.49,-0.55,
82.90584, 19:51:13.424,100.21,156.61,305.45,2.82,-0.21,0.79,0.38,0.6,-0.56,
82.9678, 19:51:13.518,120.87,155.75,279.25,2.18,-0.21,-0.1,0.4,0.69,-0.54,
83.06255, 19:51:13.546,121.12,155.68,279,0.11,0.67,-0.43,0.41,0.66,-0.55,
83.09007, 19:51:13.623,121.35,155.6,278.75,1.03,0.3,-0.59,0.41,0.72,-0.53,
83.16813, 19:51:13.678,121.57,155.53,278.52,-0.25,0.67,-0.6,0.41,0.78,-0.51,
83.22372, 19:51:13.749,121.57,155.53,278.52,0.86,-0.11,-0.36,0.42,0.79,-0.5,
83.29356, 19:51:13.801,122.21,155.21,277.67,0.23,0.05,-0.05,0.4,0.77,-0.49,
83.34515, 19:51:13.875,122.21,155.21,277.61,0.07,0.31,-0.23,0.4,0.78,-0.48,
83.42014, 19:51:13.925,122.19,155.19,277.57,0.05,0.47,-0.55,0.42,0.78,-0.47,
83.46909, 19:51:13.997,122.15,155.17,277.53,-0.02,0.56,-0.75,0.41,0.79,-0.47,
83.54152, 19:51:14.070,122.15,155.17,277.53,-0.18,0.68,-0.82,0.42,0.82,-0.46,
83.61421, 19:51:14.122,120.23,155.06,278.16,1.08,0.26,-0.74,0.42,0.82,-0.45,
83.66636, 19:51:14.177,120.11,155.06,278.27,0.41,0.56,-0.67,0.42,0.81,-0.46,
83.7216, 19:51:14.247,120,155.06,278.37,0.4,0.44,-0.52,0.4,0.81,-0.45,
83.79217, 19:51:14.299,119.91,155.07,278.46,0.53,0.37,-0.61,0.41,0.79,-0.46,
83.84312, 19:51:14.372,119.91,155.07,278.46,-0.08,0.72,-0.69,0.41,0.79,-0.44,
83.91735, 19:51:14.445,118.79,155.25,279.63,0.29,0.56,-0.61,0.42,0.82,-0.43,
83.98947, 19:51:14.495,118.69,155.24,279.71,0.53,0.51,-0.57,0.41,0.82,-0.43,
84.03915, 19:51:14.557,118.59,155.24,279.81,0.34,0.53,-0.48,0.41,0.82,-0.42,
84.1016, 19:51:14.626,118.5,155.22,279.89,0.75,0.32,-0.38,0.43,0.82,-0.42,
84.17055, 19:51:14.676,118.5,155.22,279.89,0.49,0.54,-0.5,0.43,0.81,-0.43,
84.2212, 19:51:14.770,117.15,155,281.19,0.64,0.46,-0.72,0.42,0.84,-0.41,
84.31428, 19:51:14.810,117.12,154.99,281.22,0.73,0.41,-0.9,0.43,0.82,-0.42,
84.35531, 19:51:14.870,117.1,154.99,281.27,0.83,0.32,-0.87,0.43,0.82,-0.41,
84.41433, 19:51:14.945,117.07,154.99,281.3,1.14,0.15,-0.66,0.41,0.8,-0.42,
84.48943, 19:51:14.996,117.07,154.99,281.3,0.86,0.19,-0.48,0.4,0.79,-0.42,
84.54045, 19:51:15.050,116.84,155.36,282.01,0.31,0.34,-0.3,0.4,0.81,-0.44,
84.59471, 19:51:15.123,116.86,155.36,281.98,0.49,0.28,-0.18,0.4,0.83,-0.44,
84.6665, 19:51:15.178,116.87,155.36,281.95,0.73,0.03,-0.06,0.43,0.82,-0.41,
84.7233, 19:51:15.249,116.88,155.36,281.92,0.82,0.14,-0.23,0.42,0.8,-0.43,
84.79408, 19:51:15.318,116.88,155.36,281.92,0.58,0.34,-0.16,0.4,0.79,-0.44,
84.86263, 19:51:15.371,116.6,154.83,281,-0.12,0.43,0.5,0.38,0.71,-0.43,
84.91611, 19:51:15.445,116.57,154.8,280.99,-1.16,0.66,1.01,0.37,0.68,-0.42,
84.98933, 19:51:15.507,116.52,154.75,280.97,-1.43,0.98,-0.18,0.24,0.41,-0.34,
85.05222, 19:51:15.555,116.44,154.69,280.97,-3.6,1.43,-2.72,-0.08,-0.14,-0.19,
85.09953, 19:51:15.622,116.44,154.69,280.97,-9.92,3.57,-4.13,0.01,-0.28,0.27,
85.16654, 19:51:15.695,108.64,154.94,288.13,-13.24,5.98,-2.27,0.23,0.22,0.45,
85.23896, 19:51:15.752,107.39,155.01,290.04,-7.89,4.04,0.56,0.58,1.16,0.36,
85.29685, 19:51:15.821,106.08,155.09,292.19,-6.43,3.59,1.42,0.85,1.94,0.49,
85.36526, 19:51:15.870,104.72,155.18,294.6,-0.08,0.73,2.46,0.88,1.91,0.34,
85.41427, 19:51:15.924,104.72,155.18,294.6,2.92,0.59,2.97,1.04,1.97,0.28,
85.46922, 19:51:15.997,82.54,28.47,354.22,7.31,-0.12,2.04,0.88,1.45,0.14,
85.5414, 19:51:16.047,82.82,28.72,352.98,5.77,1.49,0.87,0.65,1.1,0.06,
85.59254, 19:51:16.122,83.24,28.96,351.33,4.02,2.61,-1.06,0.35,0.63,-0.18,
85.66673, 19:51:16.168,83.76,29.19,349.42,2.27,3.37,-2.33,0.27,0.44,-0.24,
85.71262, 19:51:16.234,83.76,29.19,349.42,-1.06,4.11,-1.36,0.51,0.99,-0.37,
85.77803, 19:51:16.295,89.74,29.53,331,-2.13,3.15,-1.95,0.63,1.18,-0.96,
85.83935, 19:51:16.370,89.65,29.44,331.29,-1.12,1.49,-1.86,0.67,0.79,-1.58,
85.91504, 19:51:16.426,89.67,29.33,331.35,4.09,-2.95,-1.21,-0.12,-0.28,-1.64,
85.97041, 19:51:16.474,89.84,29.21,331.13,-9.63,-0.4,4.68,0.8,1.48,2,
86.01843, 19:51:16.526,89.84,29.21,331.13,-16.27,8.71,-6.56,2,2,0.5,
86.07011, 19:51:16.602,89.59,29.46,331.78,39.32,-19.43,-5.31,0.75,1.24,1.38,
86.14633, 19:51:16.670,87.45,28.73,339.02,-18.89,14.92,-2.56,0.23,0.25,0.6,
86.21668, 19:51:16.725,87.05,28.14,341.04,-13.07,9.35,-0.49,0.19,0.51,-0.43,
86.27043, 19:51:16.795,90.12,152.26,331.88,-9.71,7.21,-1.72,0.29,0.87,-0.43,
86.33919, 19:51:16.850,90.12,152.26,331.88,-0.95,2.29,-2.18,0.4,1.09,-0.35,
86.39408, 19:51:16.907,77.85,22.88,4.72,12.62,-5.88,-1.79,0.38,0.98,-0.24,
86.45196, 19:51:16.972,78.02,22.73,4.48,6.86,-4.35,0.18,0.28,0.8,-0.03,
86.51648, 19:51:17.016,78.4,22.58,3.89,5.87,-3.19,0.98,0.3,0.68,0.26,
86.56029, 19:51:17.075,79.04,22.45,2.79,3.97,-1.53,0.54,0.19,0.53,0.16,
86.62077, 19:51:17.143,79.04,22.45,2.79,-1.77,1.61,1.34,0.32,0.78,-0.06,
86.68777, 19:51:17.197,93.08,155.95,327.26,-2.93,1.84,1.31,0.45,1.06,-0.13,
86.74183, 19:51:17.270,92.79,155.81,327.93,-1.44,0.79,0.54,0.52,1.16,0.02,
86.81392, 19:51:17.316,92.52,155.67,328.57,1.06,0.13,-0.18,0.54,1.12,0.02,
86.8604, 19:51:17.396,92.25,155.53,329.2,-1.04,1.66,-0.75,0.51,1.09,-0.04,
86.94104, 19:51:17.444,92.25,155.53,329.2,-4.29,3.38,-0.38,0.73,1.52,-0.05,
86.98786, 19:51:17.519,86.41,25.61,344.24,0.98,0,0.19,0.62,1.48,0.43,
87.06303, 19:51:17.569,85.94,25.61,345.46,1.86,-2.61,0.05,0.4,0.89,0.43,
87.11433, 19:51:17.626,85.5,25.61,346.59,2.4,-2.18,-0.82,0.19,0.29,0.4,
87.17064, 19:51:17.695,85.12,25.62,347.55,7.06,-2.66,-1.18,0.2,0.27,0.14,
87.23911, 19:51:17.745,85.12,25.62,347.55,7.04,-1.86,-0.97,0.28,0.41,-0.1,
87.29017, 19:51:17.820,90.69,154.08,331.98,5.81,-1.5,0.36,0.26,0.54,-0.27,
87.36477, 19:51:17.871,91.15,154.07,330.57,3,-0.99,1.25,0.4,0.82,-0.26,
87.4155, 19:51:17.929,91.55,154.04,329.34,1.9,-1.03,1.4,0.51,1.07,-0.15,
87.47317, 19:51:17.999,91.94,154,328.15,4.04,-1.7,0.32,0.49,0.91,-0.05,
87.54261, 19:51:18.048,91.94,154,328.15,1.27,0.16,-0.58,0.31,0.5,-0.17,
87.59434, 19:51:18.119,100.39,151.91,302.97,1.11,0.53,-1.31,0.1,0.11,-0.09,
87.66463, 19:51:18.195,100.47,151.92,302.81,14.27,-7.09,-2.28,0.08,-0.18,0.93,
87.73927, 19:51:18.245,100.55,151.92,302.65,4.07,-2.49,-0.85,0.46,0.51,0.71,
87.79037, 19:51:18.302,100.64,151.95,302.52,-14.43,7.5,0.37,0.69,1.25,-0.89,
87.8463, 19:51:18.375,100.64,151.95,302.52,-33.55,17.66,-0.06,0.47,1.91,-2,
87.92151, 19:51:18.426,88.07,27.89,338.31,-3.76,4.64,-1.04,0.44,1.45,-1.77,
87.98221, 19:51:18.495,86.51,27.63,343.48,18.85,-11.05,0.89,0.07,-0.08,0.76,
88.03952, 19:51:18.551,85.81,27.38,345.83,-2.1,5.13,-1.96,2,2,2,
88.09909, 19:51:18.643,85.79,27.14,346.04,14.14,-3.51,-3.66,0.04,-0.5,1.31,
88.191, 19:51:18.676,85.79,27.14,346.04,2.11,1.52,3.07,0.57,1.1,1.63,
88.22041, 19:51:18.726,88.03,28.72,336.64,-5.11,2.09,1.73,0.28,0.42,0.43,
88.26997, 19:51:18.794,86.7,29,339.87,-8.4,3.17,-1.96,0.32,0.86,-0.78,
88.33886, 19:51:18.871,84.98,29.27,343.97,-6.94,4.25,-1.7,0.49,0.96,-0.64,
88.41594, 19:51:18.920,83.24,29.5,347.97,2.76,-0.58,-1.45,0.5,1.02,-0.3,
88.46381, 19:51:18.975,83.24,29.5,347.97,4.74,-1.41,-1.04,0.41,0.9,-0.13,
88.51881, 19:51:19.044,79.38,27.8,359.35,0.37,0.6,-0.98,0.49,0.91,0.06,
88.59167, 19:51:19.095,79.9,27.78,358.22,4.25,-1.2,-1.12,0.46,0.85,0.14,
88.63863, 19:51:19.149,80.33,27.77,357.24,0.47,-0.36,-0.73,0.45,0.87,0.18,
88.69326, 19:51:19.220,80.64,27.77,356.53,0.9,-2.08,-0.77,0.48,0.87,0.18,
88.76408, 19:51:19.282,80.64,27.77,356.53,-0.01,-3.56,-1.25,0.54,0.89,0.18,
88.82791, 19:51:19.339,82.93,27.55,354.05,-0.79,-5.04,-2.16,0.53,0.83,0.13,
88.88248, 19:51:19.394,82.95,27.55,354.41,-2.47,-5.69,-2.39,0.52,0.8,0.13,
88.93907, 19:51:19.455,82.95,27.54,354.92,-3.32,-4.89,-2.58,0.45,0.86,0.15,
88.99901, 19:51:19.519,82.96,27.52,355.47,-2.7,-4.77,-2.51,0.35,0.92,0.19,
89.06387, 19:51:19.579,82.96,27.52,355.47,-2.45,-3.9,-2.23,0.33,0.93,0.2,
89.12465, 19:51:19.644,81.23,25.12,57.89,-0.76,-2.21,-2.01,0.32,0.93,0.17,
89.19002, 19:51:19.695,81.1,24.99,60.94,-0.64,-0.09,-1.24,0.31,0.92,0.2,
89.23871, 19:51:19.770,80.98,24.86,63.69,0.79,1.17,-0.52,0.31,0.93,0.18,
89.31441, 19:51:19.819,80.88,24.73,66.18,0.76,2.21,0.36,0.3,0.88,0.16,
89.36275, 19:51:19.877,80.88,24.73,66.18,1.08,3.31,1.04,0.33,0.89,0.2,
89.42135, 19:51:19.929,78.66,23.28,66.76,2.29,4.47,1.09,0.33,0.9,0.26,
89.47361, 19:51:19.978,78.55,23.32,65.28,1.85,6.49,0.89,0.32,0.91,0.27,
89.52189, 19:51:20.044,78.45,23.37,63.73,1.95,7.79,1.18,0.34,0.91,0.28,
89.58749, 19:51:20.100,78.36,23.42,62.04,2.57,8.31,1.85,0.35,0.9,0.29,
89.64442, 19:51:20.170,78.36,23.42,62.04,3.12,8.24,2.15,0.4,0.9,0.3,
89.71371, 19:51:20.222,74.2,23.27,18.42,3.98,7.22,2.26,0.44,0.86,0.29,
89.76653, 19:51:20.271,74.09,23.3,17.28,3.24,6.55,2.02,0.44,0.82,0.28,
89.81516, 19:51:20.324,73.99,23.35,16.17,3.23,5.51,1.66,0.47,0.83,0.3,
89.86752, 19:51:20.375,73.91,23.4,15.09,3.49,4.37,1.12,0.46,0.81,0.29,
89.91872, 19:51:20.447,73.85,23.46,14.02,1.08,4.86,0.68,0.5,0.82,0.31,
89.99181, 19:51:20.499,73.85,23.46,14.02,2.6,3.78,0.01,0.49,0.86,0.29,
90.04411, 19:51:20.567,72.37,25.07,358.13,1.61,3.73,-0.29,0.46,0.84,0.28,
90.11142, 19:51:20.622,72.32,25.04,357.96,1.67,3.09,-0.3,0.48,0.84,0.27,
90.16673, 19:51:20.673,72.24,24.99,357.85,1.45,2.6,-0.37,0.49,0.84,0.26,
90.21772, 19:51:20.725,72.13,24.95,357.76,1.1,1.78,-0.37,0.45,0.85,0.28,
90.26884, 19:51:20.794,72.13,24.95,357.76,0.53,1.31,-0.48,0.4,0.85,0.27,
90.33897, 19:51:20.845,70.93,24.39,355.9,0.69,1.04,-0.34,0.37,0.88,0.29,
90.39028, 19:51:20.900,70.89,24.37,355.92,2.67,0.85,-0.19,0.34,0.9,0.31,
90.44386, 19:51:20.973,70.85,24.36,355.94,3.37,1.45,-0.02,0.29,0.92,0.29,
90.51901, 19:51:21.025,70.8,24.33,355.98,2.99,1.53,0.56,0.26,0.88,0.25,
90.56903, 19:51:21.073,70.8,24.33,355.98,1.73,1.07,1.1,0.33,0.85,0.23,
90.61742, 19:51:21.145,73.17,24.01,352.11,-0.37,0.59,1.57,0.53,0.78,0.25,
90.68938, 19:51:21.204,73.13,24.12,351.98,-1.92,-0.05,1.4,0.63,0.77,0.22,
90.74759, 19:51:21.250,73.04,24.25,351.87,-1.6,-1.24,0.4,0.7,0.76,0.27,
90.79473, 19:51:21.323,72.91,24.41,351.78,-1.98,-1.34,-1.06,0.69,0.78,0.29,
90.86649, 19:51:21.373,72.91,24.41,351.78,-1.45,-2.89,-2.11,0.65,0.8,0.26,
90.91707, 19:51:21.444,72.91,24.41,351.78,-2.36,-4.57,-2.89,0.64,0.75,0.23,
90.98991, 19:51:21.498,69.03,29.28,355.04,-3.63,-5.13,-3.93,0.53,0.81,0.38,
91.04263, 19:51:21.550,69,29.31,355.51,-4.34,-5.2,-4.21,0.46,0.85,0.4,
91.09483, 19:51:21.620,68.96,29.32,356.05,-4.18,-5,-2.17,0.41,0.87,0.39,
91.16439, 19:51:21.675,68.91,29.32,356.64,-0.62,-6.47,3.95,0.35,0.84,0.43,
91.21889, 19:51:21.745,68.91,29.32,356.64,1.5,-5.89,9.25,0.4,0.92,0.43,
91.2893, 19:51:21.783,67.08,34.05,12.17,4.29,-5.92,16.52,0.53,0.73,0.32,
91.32738, 19:51:21.856,67.15,35,11.44,10.44,-6,25.14,0.73,0.57,0.26,
91.40018, 19:51:21.919,67.23,36.03,10.52,10.11,-1.01,30.39,0.9,0.53,0.27,
91.46445, 19:51:21.972,67.32,37.17,9.37,8.42,0.63,27.17,1.02,0.35,0.25,
91.51627, 19:51:22.026,67.32,37.17,9.37,1.64,1.96,20.36,0.97,0.16,0.21,
91.57029, 19:51:22.095,2.24,81.5,288.86,3.64,-1.25,14.02,0.96,-0.05,0.23,
91.64283, 19:51:22.148,352.32,81.31,287.56,5.21,-3.31,9.05,0.94,-0.22,0.12,
91.69366, 19:51:22.224,343.42,80.93,286.18,9.69,-5.03,6.75,0.94,-0.32,0.07,
91.76866, 19:51:22.274,335.74,80.43,284.75,9.63,-3.5,5.95,1.04,-0.24,0.03,
91.81769, 19:51:22.328,335.74,80.43,284.75,5.24,-1.09,4.16,0.92,-0.3,0,
91.87276, 19:51:22.398,283.83,68.7,255.31,4.64,-1.03,1.24,0.95,-0.37,0.09,
91.94308, 19:51:22.475,283.63,68.42,254.95,2.45,-0.02,-0.94,0.99,-0.43,0.11,
92.01904, 19:51:22.525,283.45,68.17,254.61,1.4,0.72,-1.5,0.99,-0.44,0.1,
92.06894, 19:51:22.595,283.33,67.97,254.32,1.95,0.36,-1.05,0.94,-0.4,0.09,
92.13919, 19:51:22.645,283.33,67.97,254.32,1.08,0.33,-0.84,0.94,-0.38,0.09,
92.18874, 19:51:22.709,285.54,67.97,254.74,0.67,0.31,-0.63,0.96,-0.37,0.11,
92.25306, 19:51:22.795,285.57,67.99,254.76,0.13,0.79,-0.66,0.98,-0.38,0.11,
92.33924, 19:51:22.824,285.56,68,254.76,0.78,0.67,-0.47,0.98,-0.38,0.11,
92.36783, 19:51:22.925,285.57,68.02,254.77,1.11,0.86,0.17,0.97,-0.37,0.14,
92.47002, 19:51:22.956,285.57,68.02,254.77,1.69,0.4,0.13,0.93,-0.35,0.08,
92.50044, 19:51:23.020,287.16,67.33,255.17,0.33,0.12,-2.05,0.97,-0.36,0.07,
92.56434, 19:51:23.116,287.19,67.31,255.15,-0.63,-0.66,-5.86,1.02,-0.37,0,
92.66096, 19:51:23.169,287.19,67.3,255.13,-3.5,-1.47,-12.01,1.05,-0.27,-0.03,
92.7142, 19:51:23.232,287.18,67.31,255.13,-8.05,-0.46,-18.6,1.1,-0.21,0.05,
92.77674, 19:51:23.273,287.18,67.31,255.13,-8.42,1.02,-23.54,1.01,-0.12,0.19,
92.81795, 19:51:23.345,287.18,67.31,255.13,-7.24,1.62,-26.05,0.93,0.12,0.27,
92.89021, 19:51:23.422,72.63,73.94,294.01,-7.14,3.24,-27.31,0.79,0.37,0.25,
92.96673, 19:51:23.472,73.38,71.93,296.86,-4.99,3.18,-25.98,0.59,0.63,0.26,
93.01646, 19:51:23.533,73.95,69.87,299.79,-2.78,2.57,-23.69,0.46,0.74,0.28,
93.07751, 19:51:23.585,74.35,67.77,302.82,-16.07,9.27,-20.14,0.36,0.89,0.28,
93.12991, 19:51:23.674,74.35,67.77,302.82,2.56,-1.12,-13.43,0.34,1,0.31,
93.21771, 19:51:23.699,66.04,16.84,24.26,1.97,-2.52,-5.3,0.25,0.94,0.32,
93.24286, 19:51:23.773,66.33,16.08,25.03,0.66,-1.76,-0.26,0.27,0.96,0.36,
93.31615, 19:51:23.822,66.5,15.43,25.82,1.86,-1.21,1.27,0.25,0.91,0.38,
93.36633, 19:51:23.877,66.59,14.85,26.6,0.99,-0.02,1.58,0.25,0.88,0.37,
93.42185, 19:51:23.943,66.59,14.85,26.6,1.08,0.28,1.33,0.23,0.9,0.36,
93.48779, 19:51:23.987,68.37,16.23,27.19,0.18,0.87,0.8,0.23,0.9,0.38,
93.53212, 19:51:24.050,68.34,16.32,27.07,0.47,0.96,0.08,0.23,0.88,0.37,
93.59603, 19:51:24.122,68.3,16.41,26.97,0.88,0.62,-0.39,0.27,0.89,0.37,
93.66714, 19:51:24.170,68.24,16.49,26.88,1.07,0.4,-0.76,0.3,0.87,0.36,
93.71375, 19:51:24.222,68.16,16.55,26.84,0.79,0.31,-0.57,0.33,0.88,0.37,
93.76676, 19:51:24.297,68.16,16.55,26.84,1.74,-0.02,-0.16,0.32,0.88,0.38,
93.84132, 19:51:24.347,67.57,16.84,26.07,1.33,0.15,0.41,0.3,0.88,0.36,
93.89165, 19:51:24.408,67.63,16.89,25.93,1.62,-0.06,0.77,0.3,0.89,0.36,
93.95343, 19:51:24.456,67.69,16.95,25.8,1.27,0.36,0.4,0.29,0.87,0.36,
94.00086, 19:51:24.522,67.73,17.02,25.68,0.93,0.76,-0.03,0.29,0.88,0.37,
94.06641, 19:51:24.575,67.73,17.02,25.68,0.91,0.83,-0.18,0.3,0.88,0.37,
94.11923, 19:51:24.645,68.13,18.49,22.67,1.66,0.33,0.07,0.31,0.86,0.36,
94.18945, 19:51:24.685,68.11,18.49,22.63,2.37,-0.18,0.18,0.32,0.85,0.34,
94.22939, 19:51:24.769,68.07,18.49,22.59,4.89,-1.52,0.4,0.32,0.77,0.31,
94.31541, 19:51:24.799,68.06,18.51,22.52,8.35,-3.26,0.51,0.34,0.73,0.21,
94.34379, 19:51:24.868,68.06,18.51,22.52,10.63,-4.75,1.68,0.25,0.48,0.05,
94.41363, 19:51:24.921,78.06,21.85,4.66,-1.47,0.27,4.12,0.26,0.63,0.09,
94.46684, 19:51:24.976,78.98,22.13,2.69,-6.5,2.89,3.94,0.31,0.71,0.22,
94.52022, 19:51:25.043,79.83,22.43,0.79,-7.06,4.15,0.66,0.5,0.74,0.28,
94.5879, 19:51:25.105,80.5,22.74,359.16,-2.8,2.1,-1.71,0.4,0.87,0.33,
94.64937, 19:51:25.152,80.5,22.74,359.16,-10.51,5.09,-1.39,0.49,1.06,0.59,
94.69733, 19:51:25.223,64.45,24.82,21.2,-6.41,2.98,-0.48,0.55,1.11,0.72,
94.76858, 19:51:25.278,63.35,24.58,22.55,-1.58,0.89,0.08,0.61,1.12,0.69,
94.82338, 19:51:25.345,62.24,24.37,23.81,2.67,-0.47,-0.32,0.5,0.94,0.55,
94.88889, 19:51:25.399,61.14,24.19,24.97,-0.4,1.32,0.36,0.5,0.97,0.36,
94.94434, 19:51:25.443,61.14,24.19,24.97,4.05,-0.45,0.37,0.44,0.93,0.34,
94.98828, 19:51:25.507,57.97,24.48,26.74,4.57,-0.77,0.59,0.39,0.73,0.45,
95.05158, 19:51:25.567,58.36,24.58,26.26,3.82,-0.52,0.04,0.36,0.66,0.56,
95.11161, 19:51:25.630,58.75,24.68,25.77,3.06,-0.44,-0.24,0.4,0.66,0.57,
95.17511, 19:51:25.693,59.12,24.79,25.29,1.24,0.34,-0.46,0.39,0.69,0.51,
95.23666, 19:51:25.750,59.12,24.79,25.29,0.53,0.61,-0.01,0.42,0.71,0.45,
95.29401, 19:51:25.819,61.6,25.94,20.57,0.08,0.78,-0.07,0.42,0.77,0.41,
95.36475, 19:51:25.869,61.55,25.96,20.56,0.64,0.45,0.11,0.44,0.77,0.42,
95.41415, 19:51:25.924,61.51,25.99,20.52,-0.56,1.08,0.14,0.45,0.78,0.44,
95.46983, 19:51:25.975,61.48,26.01,20.49,0.92,0.55,-0.08,0.47,0.78,0.46,
95.51939, 19:51:26.045,61.48,26.01,20.49,0.48,0.91,-0.13,0.44,0.79,0.44,
95.58933, 19:51:26.096,59.62,26.56,20.52,0.87,0.63,-0.24,0.45,0.78,0.44,
95.6404, 19:51:26.151,59.54,26.56,20.53,0.35,0.79,-0.45,0.43,0.78,0.43,
95.69595, 19:51:26.207,59.47,26.56,20.53,0.66,0.52,-0.5,0.45,0.77,0.44,
95.75209, 19:51:26.270,59.4,26.55,20.53,0.18,0.61,-0.44,0.44,0.77,0.45,
95.81411, 19:51:26.329,59.4,26.55,20.53,0.1,0.6,-0.53,0.45,0.77,0.47,
95.87309, 19:51:26.374,58.41,26.34,20.93,0.5,0.37,-0.71,0.45,0.77,0.47,
95.91899, 19:51:26.444,58.35,26.34,20.99,0.52,0.37,-0.82,0.44,0.73,0.47,
95.9888, 19:51:26.496,58.29,26.33,21.05,-0.51,0.82,-0.73,0.39,0.67,0.47,
96.04041, 19:51:26.572,58.24,26.32,21.1,-2.08,1.67,-0.18,0.38,0.63,0.53,
96.11674, 19:51:26.619,58.24,26.32,21.1,-1.99,1.37,0.46,0.62,1.09,0.72,
96.16445, 19:51:26.672,58.24,26.32,21.1,9.82,-3.38,-0.98,0.91,1.44,1.29,
96.21724, 19:51:26.730,55.25,26.05,23.47,5.03,-0.16,-1.17,0.84,1.49,1.23,
96.27419, 19:51:26.797,56.17,26.2,22.66,-5.89,5.34,-2.4,0.5,0.81,0.14,
96.34179, 19:51:26.851,57.27,26.35,21.67,0.15,2.85,-2.25,0.24,0.73,0.36,
96.39546, 19:51:26.911,58.37,26.48,20.63,13.08,-3.62,-1.99,0.15,0.42,0.26,
96.45535, 19:51:26.972,58.37,26.48,20.63,11.57,-2.91,-1.2,0.11,0.23,0.24,
96.51637, 19:51:27.044,66.89,23.33,12.48,-1.32,0.4,1.87,0.3,0.43,0.19,
96.5907, 19:51:27.097,67.55,23.38,11.61,4.96,-4.5,1.88,0.25,0.46,-0.12,
96.64129, 19:51:27.148,68.04,23.47,10.91,-0.37,-1.16,-0.65,0.43,0.79,-0.1,
96.693, 19:51:27.222,68.34,23.57,10.39,-6.63,3.7,-1.84,0.59,0.84,0.17,
96.76747, 19:51:27.274,68.34,23.57,10.39,-4.36,2.71,-1.5,0.48,0.93,0.36,
96.8187, 19:51:27.326,65.69,25.58,14.23,-1.85,1.56,-1.52,0.41,0.72,0.39,
96.87057, 19:51:27.395,65.21,25.42,14.91,-13.92,6.84,-0.52,0.3,0.62,0.31,
96.93913, 19:51:27.451,64.75,25.26,15.57,-15.86,7.5,0.47,0.39,0.59,0.71,
96.99525, 19:51:27.508,64.33,25.12,16.18,-15.52,7.75,-0.44,0.35,0.67,0.86,
97.05256, 19:51:27.570,64.33,25.12,16.18,-7.84,3.63,-0.57,0.29,0.6,1.01,
97.1148, 19:51:27.645,32.87,17.11,36.78,2.11,-2.21,-0.82,0.43,0.74,1.01,
97.18914, 19:51:27.696,32.46,17,36.99,5.98,-4.06,-0.12,0.55,0.91,0.9,
97.24005, 19:51:27.748,32.2,16.95,37.17,5.24,-3.11,0.39,0.49,0.92,0.91,
97.29163, 19:51:27.820,32.05,16.96,37.32,8.82,-4.39,0.27,0.42,0.74,1.06,
97.36481, 19:51:27.870,32.05,16.96,37.32,7.76,-3.47,0.22,0.38,0.55,1.03,
97.41432, 19:51:27.924,44.54,23.93,32.48,10.71,-4.63,-0.5,0.27,0.42,0.87,
97.46916, 19:51:27.994,45.02,24.15,32.13,7.71,-3.8,-0.22,0.23,0.37,0.64,
97.53939, 19:51:28.044,45.56,24.37,31.74,6,-3.34,-0.4,0.22,0.37,0.4,
97.59041, 19:51:28.101,46.18,24.58,31.31,6.63,-3.76,-0.81,0.32,0.47,0.29,
97.64567, 19:51:28.152,46.18,24.58,31.31,4.71,-2.5,-0.87,0.37,0.62,0.25,
97.69655, 19:51:28.240,60.82,28.99,21.23,3.94,-2.06,-0.79,0.46,0.73,0.27,
97.78458, 19:51:28.295,61.36,29.08,20.79,6.89,-3.37,-0.42,0.51,0.81,0.29,
97.83952, 19:51:28.345,61.91,29.17,20.35,6.94,-3.24,-0.38,0.51,0.78,0.28,
97.88899, 19:51:28.396,62.43,29.26,19.9,9.52,-3.93,-0.82,0.4,0.58,0.14,
97.94041, 19:51:28.470,62.43,29.26,19.9,13.53,-4.78,-2.11,0.1,0.16,-0.15,
98.01495, 19:51:28.524,81.92,31.51,347.88,12.11,-5.15,-2.83,-0.12,-0.21,-0.21,
