Elapsed_Time, System_Time, Euler_Roll, Euler_Pitch, Euler_Yaw, Gyro_Roll, Gyro_Pitch, Gyro_Yaw, Accel_x, Accel_y, Accel_z
0.02, 09:13:19.084,0,0,0,0,0,0,0,0,0,
0.04, 09:13:19.400,0,0,0,0,0,0,0,0,0,
0.3733333, 09:13:21.827,0,0,0,0,0,0,0,0,0,
0.4844542, 09:13:21.927,0,0,0,0,0,0,0,0,0,
0.5893121, 09:13:22.044,0,0,0,0,0,0,0,0,0,
0.6588128, 09:13:22.095,0,0,0,0,0,0,0,0,0,
0.724512, 09:13:22.161,0,0,0,0,0,0,0,0,0,
0.77819, 09:13:22.214,0,0,0,0,0,0,0,0,0,
0.8298824, 09:13:22.266,0,0,0,0,0,0,0,0,0,
0.880412, 09:13:22.317,0,0,0,0,0,0,0,0,0,
0.9234974, 09:13:22.360,0,0,0,0,0,0,0,0,0,
0.9741907, 09:13:22.410,0,0,0,0,0,0,0,0,0,
1.015464, 09:13:22.451,0,0,0,0,0,0,0,0,0,
1.059358, 09:13:22.496,0,0,0,0,0,0,0,0,0,
1.101548, 09:13:22.540,0,0,0,0,0,0,0,0,0,
1.157681, 09:13:22.594,0,0,0,0,0,0,0,0,0,
1.205747, 09:13:22.643,0,0,0,0,0,0,0,0,0,
1.259151, 09:13:22.695,0,0,0,0,0,0,0,0,0,
1.3019, 09:13:22.738,0,0,0,0,0,0,0,0,0,
1.345769, 09:13:22.781,0,0,0,0,0,0,0,0,0,
1.389122, 09:13:22.825,0,0,0,0,0,0,0,0,0,
1.437228, 09:13:22.873,0,0,0,0,0,0,0,0,0,
1.478321, 09:13:22.914,0,0,0,0,0,0,0,0,0,
1.527107, 09:13:22.964,0,0,0,0,0,0,0,0,0,
1.575255, 09:13:23.013,0,0,0,0,0,0,0,0,0,
1.628281, 09:13:23.066,0,0,0,0,0,0,0,0,0,
1.756342, 09:13:23.195,0,0,0,0,0,0,0,0,0,
1.803001, 09:13:23.240,0,0,0,0,0,0,0,0,0,
1.847846, 09:13:23.425,0,0,0,0,0,0,0,0,0,
2.032476, 09:13:23.476,0,0,0,0,0,0,0,0,0,
2.36581, 09:13:23.990,0,0,0,0,0,0,0,0,0,
2.544403, 09:13:24.161,0,0,0,0,0,0,0,0,0,
2.595755, 09:13:24.204,0,0,0,0,0,0,0,0,0,
2.641477, 09:13:24.251,0,0,0,0,0,0,0,0,0,
2.685098, 09:13:24.293,0,0,0,0,0,0,0,0,0,
2.727977, 09:13:24.338,0,0,0,0,0,0,0,0,0,
2.776069, 09:13:24.384,0,0,0,0,0,0,0,0,0,
2.822196, 09:13:24.431,0,0,0,0,0,0,0,0,0,
2.867513, 09:13:24.476,0,0,0,0,0,0,0,0,0,
2.907872, 09:13:24.517,0,0,0,0,0,0,0,0,0,
2.955599, 09:13:24.563,0,0,0,0,0,0,0,0,0,
3.006319, 09:13:24.615,0,0,0,0,0,0,0,0,0,
3.057635, 09:13:24.665,0,0,0,0,0,0,0,0,0,
3.103091, 09:13:24.711,0,0,0,0,0,0,0,0,0,
3.146901, 09:13:24.756,0,0,0,0,0,0,0,0,0,
3.188807, 09:13:24.797,0,0,0,0,0,0,0,0,0,
3.235537, 09:13:24.843,0,0,0,0,0,0,0,0,0,
3.283757, 09:13:24.892,0,0,0,0,0,0,0,0,0,
3.333522, 09:13:24.941,0,0,0,0,0,0,0,0,0,
3.376864, 09:13:24.985,0,0,0,0,0,0,0,0,0,
3.423778, 09:13:25.033,0,0,0,0,0,0,0,0,0,
3.47464, 09:13:25.082,0,0,0,0,0,0,0,0,0,
3.522025, 09:13:25.133,0,0,0,0,0,0,0,0,0,
3.566183, 09:13:25.175,0,0,0,0,0,0,0,0,0,
3.6086, 09:13:25.217,0,0,0,0,0,0,0,0,0,
3.654821, 09:13:25.264,0,0,0,0,0,0,0,0,0,
3.70025, 09:13:25.309,0,0,0,0,0,0,0,0,0,
3.743423, 09:13:25.351,0,0,0,0,0,0,0,0,0,
3.786445, 09:13:25.394,0,0,0,0,0,0,0,0,0,
3.83431, 09:13:25.442,0,0,0,0,0,0,0,0,0,
3.883044, 09:13:25.491,0,0,0,0,0,0,0,0,0,
3.923785, 09:13:25.533,0,0,0,0,0,0,0,0,0,
3.968241, 09:13:25.577,0,0,0,0,0,0,0,0,0,
4.017653, 09:13:25.626,0,0,0,0,0,0,0,0,0,
4.066517, 09:13:25.675,0,0,0,0,0,0,0,0,0,
4.107677, 09:13:25.716,0,0,0,0,0,0,0,0,0,
4.151051, 09:13:25.760,0,0,0,0,0,0,0,0,0,
4.199339, 09:13:25.807,0,0,0,0,0,0,0,0,0,
4.249193, 09:13:25.858,0,0,0,0,0,0,0,0,0,
4.293774, 09:13:25.902,0,0,0,0,0,0,0,0,0,
4.341263, 09:13:25.950,0,0,0,0,0,0,0,0,0,
4.389591, 09:13:25.997,0,0,0,0,0,0,0,0,0,
4.436324, 09:13:26.045,0,0,0,0,0,0,0,0,0,
4.480241, 09:13:26.089,0,0,0,0,0,0,0,0,0,
4.522061, 09:13:26.129,0,0,0,0,0,0,0,0,0,
4.570255, 09:13:26.178,0,0,0,0,0,0,0,0,0,
4.615692, 09:13:26.224,0,0,0,0,0,0,0,0,0,
4.65622, 09:13:26.264,0,0,0,0,0,0,0,0,0,
4.702377, 09:13:26.310,0,0,0,0,0,0,0,0,0,
4.748273, 09:13:26.357,0,0,0,0,0,0,0,0,0,
4.793665, 09:13:26.401,0,0,0,0,0,0,0,0,0,
4.838085, 09:13:26.446,0,0,0,0,0,0,0,0,0,
4.878672, 09:13:26.486,0,0,0,0,0,0,0,0,0,
4.927361, 09:13:26.536,0,0,0,0,0,0,0,0,0,
4.972306, 09:13:26.583,0,0,0,0,0,0,0,0,0,
5.018603, 09:13:26.627,0,0,0,0,0,0,0,0,0,
5.059543, 09:13:26.669,0,0,0,0,0,0,0,0,0,
5.105862, 09:13:26.716,0,0,0,0,0,0,0,0,0,
5.155178, 09:13:26.763,0,0,0,0,0,0,0,0,0,
5.196498, 09:13:26.805,0,0,0,0,0,0,0,0,0,
5.240204, 09:13:26.849,0,0,0,0,0,0,0,0,0,
5.28583, 09:13:26.893,0,0,0,0,0,0,0,0,0,
5.326914, 09:13:26.934,0,0,0,0,0,0,0,0,0,
5.372362, 09:13:26.980,0,0,0,0,0,0,0,0,0,
5.415832, 09:13:27.024,0,0,0,0,0,0,0,0,0,
5.463599, 09:13:27.073,0,0,0,0,0,0,0,0,0,
5.518812, 09:13:27.126,0,0,0,0,0,0,0,0,0,
5.563329, 09:13:27.173,0,0,0,0,0,0,0,0,0,
5.608147, 09:13:27.217,0,0,0,0,0,0,0,0,0,
5.657947, 09:13:27.267,0,0,0,0,0,0,0,0,0,
5.704986, 09:13:27.314,0,0,0,0,0,0,0,0,0,
5.750319, 09:13:27.358,0,0,0,0,0,0,0,0,0,
5.794401, 09:13:27.402,0,0,0,0,0,0,0,0,0,
5.845013, 09:13:27.454,0,0,0,0,0,0,0,0,0,
5.891024, 09:13:27.498,0,0,0,0,0,0,0,0,0,
5.932227, 09:13:27.540,0,0,0,0,0,0,0,0,0,
5.976365, 09:13:27.585,0,0,0,0,0,0,0,0,0,
6.023592, 09:13:27.634,0,0,0,0,0,0,0,0,0,
6.079718, 09:13:27.687,0,0,0,0,0,0,0,0,0,
6.126822, 09:13:27.737,0,0,0,0,0,0,0,0,0,
6.180521, 09:13:27.790,0,0,0,0,0,0,0,0,0,
6.231438, 09:13:27.839,0,0,0,0,0,0,0,0,0,
6.280169, 09:13:27.889,0,0,0,0,0,0,0,0,0,
6.323146, 09:13:27.931,0,0,0,0,0,0,0,0,0,
6.379426, 09:13:27.987,0,0,0,0,0,0,0,0,0,
6.422732, 09:13:28.031,0,0,0,0,0,0,0,0,0,
6.469094, 09:13:28.077,0,0,0,0,0,0,0,0,0,
6.515601, 09:13:28.123,0,0,0,0,0,0,0,0,0,
6.564895, 09:13:28.175,0,0,0,0,0,0,0,0,0,
6.609372, 09:13:28.218,0,0,0,0,0,0,0,0,0,
6.654812, 09:13:28.262,0,0,0,0,0,0,0,0,0,
6.700752, 09:13:28.309,0,0,0,0,0,0,0,0,0,
6.75367, 09:13:28.362,0,0,0,0,0,0,0,0,0,
6.801, 09:13:28.410,0,0,0,0,0,0,0,0,0,
6.846247, 09:13:28.453,0,0,0,0,0,0,0,0,0,
6.89535, 09:13:28.503,0,0,0,0,0,0,0,0,0,
6.944417, 09:13:28.553,0,0,0,0,0,0,0,0,0,
6.996256, 09:13:28.603,0,0,0,0,0,0,0,0,0,
7.044042, 09:13:28.653,0,0,0,0,0,0,0,0,0,
7.089506, 09:13:28.697,0,0,0,0,0,0,0,0,0,
7.132696, 09:13:28.742,0,0,0,0,0,0,0,0,0,
7.17834, 09:13:28.786,0,0,0,0,0,0,0,0,0,
7.228758, 09:13:28.843,0,0,0,0,0,0,0,0,0,
7.287102, 09:13:28.897,0,0,0,0,0,0,0,0,0,
7.33718, 09:13:28.944,0,0,0,0,0,0,0,0,0,
7.383402, 09:13:28.992,0,0,0,0,0,0,0,0,0,
7.435263, 09:13:29.043,0,0,0,0,0,0,0,0,0,
7.480411, 09:13:29.089,0,0,0,0,0,0,0,0,0,
7.528296, 09:13:29.136,0,0,0,0,0,0,0,0,0,
7.574549, 09:13:29.182,0,0,0,0,0,0,0,0,0,
7.620109, 09:13:29.229,0,0,0,0,0,0,0,0,0,
7.671209, 09:13:29.279,0,0,0,0,0,0,0,0,0,
7.722044, 09:13:29.331,0,0,0,0,0,0,0,0,0,
7.771408, 09:13:29.379,0,0,0,0,0,0,0,0,0,
7.817046, 09:13:29.425,0,0,0,0,0,0,0,0,0,
7.863906, 09:13:29.472,0,0,0,0,0,0,0,0,0,
7.910039, 09:13:29.517,0,0,0,0,0,0,0,0,0,
7.958547, 09:13:29.567,0,0,0,0,0,0,0,0,0,
8.041638, 09:13:29.653,0,0,0,0,0,0,0,0,0,
8.085554, 09:13:29.692,0,0,0,0,0,0,0,0,0,
8.133471, 09:13:29.742,0,0,0,0,0,0,0,0,0,
8.183947, 09:13:29.793,0,0,0,0,0,0,0,0,0,
8.229046, 09:13:29.836,0,0,0,0,0,0,0,0,0,
8.27071, 09:13:29.878,0,0,0,0,0,0,0,0,0,
8.317727, 09:13:29.926,0,0,0,0,0,0,0,0,0,
8.369253, 09:13:29.978,0,0,0,0,0,0,0,0,0,
8.702586, 09:13:30.731,0,0,0,0,0,0,0,0,0,
8.771029, 09:13:30.785,0,0,0,0,0,0,0,0,0,
8.821671, 09:13:30.835,0,0,0,0,0,0,0,0,0,
8.867437, 09:13:30.879,0,0,0,0,0,0,0,0,0,
8.91094, 09:13:30.922,0,0,0,0,0,0,0,0,0,
8.959575, 09:13:30.972,0,0,0,0,0,0,0,0,0,
9.001276, 09:13:31.016,0,0,0,0,0,0,0,0,0,
9.047865, 09:13:31.059,0,0,0,0,0,0,0,0,0,
9.093312, 09:13:31.106,0,0,0,0,0,0,0,0,0,
9.13783, 09:13:31.149,0,0,0,0,0,0,0,0,0,
9.183612, 09:13:31.196,0,0,0,0,0,0,0,0,0,
9.233373, 09:13:31.244,0,0,0,0,0,0,0,0,0,
9.279137, 09:13:31.291,0,0,0,0,0,0,0,0,0,
9.334546, 09:13:31.348,0,0,0,0,0,0,0,0,0,
9.382671, 09:13:31.396,0,0,0,0,0,0,0,0,0,
9.433586, 09:13:31.447,0,0,0,0,0,0,0,0,0,
9.478415, 09:13:31.491,0,0,0,0,0,0,0,0,0,
9.525532, 09:13:31.539,0,0,0,0,0,0,0,0,0,
9.569446, 09:13:31.582,0,0,0,0,0,0,0,0,0,
9.615777, 09:13:31.627,0,0,0,0,0,0,0,0,0,
9.664576, 09:13:31.676,0,0,0,0,0,0,0,0,0,
9.709445, 09:13:31.722,0,0,0,0,0,0,0,0,0,
9.750608, 09:13:31.763,0,0,0,0,0,0,0,0,0,
9.899641, 09:13:31.918,0,0,0,0,0,0,0,0,0,
9.991247, 09:13:32.008,0,0,0,0,0,0,0,0,0,
Elapsed_Time, System_Time, Euler_Roll, Euler_Pitch, Euler_Yaw, Gyro_Roll, Gyro_Pitch, Gyro_Yaw, Accel_x, Accel_y, Accel_z
0.02, 09:13:37.723,0,0,0,0,0,0,0,0,0,
0.04, 09:13:37.822,0,0,0,0,0,0,0,0,0,
0.3733333, 09:13:38.183,0,0,0,0,0,0,0,0,0,
0.4280805, 09:13:38.228,0,0,0,0,0,0,0,0,0,
0.4814963, 09:13:38.276,0,0,0,0,0,0,0,0,0,
0.511888, 09:13:38.303,0,0,0,0,0,0,0,0,0,
0.5724964, 09:13:38.365,0,0,0,0,0,0,0,0,0,
0.6103383, 09:13:38.402,0,0,0,0,0,0,0,0,0,
0.6458042, 09:13:38.438,0,0,0,0,0,0,0,0,0,
0.6887022, 09:13:38.480,0,0,0,0,0,0,0,0,0,
0.7175264, 09:13:38.508,0,0,0,0,0,0,0,0,0,
0.7508872, 09:13:38.544,0,0,0,0,0,0,0,0,0,
0.7777693, 09:13:38.568,0,0,0,0,0,0,0,0,0,
0.8084188, 09:13:38.599,0,0,0,0,0,0,0,0,0,
0.8605593, 09:13:38.652,0,0,0,0,0,0,0,0,0,
0.8926535, 09:13:38.684,0,0,0,0,0,0,0,0,0,
0.9208124, 09:13:38.712,0,0,0,0,0,0,0,0,0,
0.9564902, 09:13:38.748,0,0,0,0,0,0,0,0,0,
0.9843199, 09:13:38.776,0,0,0,0,0,0,0,0,0,
1.015133, 09:13:38.806,0,0,0,0,0,0,0,0,0,
1.040906, 09:13:38.832,0,0,0,0,0,0,0,0,0,
1.07337, 09:13:38.864,0,0,0,0,0,0,0,0,0,
1.098581, 09:13:38.890,0,0,0,0,0,0,0,0,0,
1.133513, 09:13:38.926,0,0,0,0,0,0,0,0,0,
1.162347, 09:13:38.953,0,0,0,0,0,0,0,0,0,
1.192733, 09:13:38.983,0,0,0,0,0,0,0,0,0,
1.269578, 09:13:39.063,0,0,0,0,0,0,0,0,0,
1.298179, 09:13:39.089,0,0,0,0,0,0,0,0,0,
1.324447, 09:13:39.179,0,0,0,0,0,0,0,0,0,
1.414237, 09:13:39.208,0,0,0,0,0,0,0,0,0,
1.48119, 09:13:39.275,0,0,0,0,0,0,0,0,0,
1.576003, 09:13:39.372,0,0,0,0,0,0,0,0,0,
1.612079, 09:13:39.403,0,0,0,0,0,0,0,0,0,
1.638436, 09:13:39.429,0,0,0,0,0,0,0,0,0,
1.66719, 09:13:39.460,0,0,0,0,0,0,0,0,0,
1.694909, 09:13:39.486,0,0,0,0,0,0,0,0,0,
1.720284, 09:13:39.512,0,0,0,0,0,0,0,0,0,
1.754531, 09:13:39.545,0,0,0,0,0,0,0,0,0,
1.78217, 09:13:39.574,0,0,0,0,0,0,0,0,0,
1.812345, 09:13:39.603,0,0,0,0,0,0,0,0,0,
1.837929, 09:13:39.628,0,0,0,0,0,0,0,0,0,
1.864356, 09:13:39.657,0,0,0,0,0,0,0,0,0,
1.891002, 09:13:39.682,0,0,0,0,0,0,0,0,0,
1.91854, 09:13:39.709,0,0,0,0,0,0,0,0,0,
1.946692, 09:13:39.739,0,0,0,0,0,0,0,0,0,
1.972566, 09:13:39.763,0,0,0,0,0,0,0,0,0,
1.998973, 09:13:39.789,0,0,0,0,0,0,0,0,0,
2.025491, 09:13:39.817,0,0,0,0,0,0,0,0,0,
2.05196, 09:13:39.843,0,0,0,0,0,0,0,0,0,
2.079097, 09:13:39.869,0,0,0,0,0,0,0,0,0,
2.105875, 09:13:39.897,0,0,0,0,0,0,0,0,0,
2.131711, 09:13:39.922,0,0,0,0,0,0,0,0,0,
2.159959, 09:13:39.951,0,0,0,0,0,0,0,0,0,
2.186698, 09:13:39.979,0,0,0,0,0,0,0,0,0,
2.217656, 09:13:40.008,0,0,0,0,0,0,0,0,0,
2.242231, 09:13:40.034,0,0,0,0,0,0,0,0,0,
2.270917, 09:13:40.061,0,0,0,0,0,0,0,0,0,
2.298484, 09:13:40.090,0,0,0,0,0,0,0,0,0,
2.326638, 09:13:40.118,0,0,0,0,0,0,0,0,0,
2.353054, 09:13:40.144,0,0,0,0,0,0,0,0,0,
2.381905, 09:13:40.174,0,0,0,0,0,0,0,0,0,
2.408516, 09:13:40.199,0,0,0,0,0,0,0,0,0,
2.434381, 09:13:40.225,0,0,0,0,0,0,0,0,0,
2.461583, 09:13:40.253,0,0,0,0,0,0,0,0,0,
2.490302, 09:13:40.281,0,0,0,0,0,0,0,0,0,
2.518208, 09:13:40.309,0,0,0,0,0,0,0,0,0,
2.5469, 09:13:40.339,0,0,0,0,0,0,0,0,0,
2.576874, 09:13:40.368,0,0,0,0,0,0,0,0,0,
2.618909, 09:13:40.410,0,0,0,0,0,0,0,0,0,
2.648966, 09:13:40.441,0,0,0,0,0,0,0,0,0,
2.676829, 09:13:40.469,0,0,0,0,0,0,0,0,0,
2.709748, 09:13:40.501,0,0,0,0,0,0,0,0,0,
Elapsed_Time, System_Time, Euler_Roll, Euler_Pitch, Euler_Yaw, Gyro_Roll, Gyro_Pitch, Gyro_Yaw, Accel_x, Accel_y, Accel_z
0.02, 09:13:45.766,0,0,0,0,0,0,0,0,0,
0.04, 09:13:45.861,0,0,0,0,0,0,0,0,0,
0.3733333, 09:13:46.226,0,0,0,0,0,0,0,0,0,
0.4383844, 09:13:46.277,0,0,0,0,0,0,0,0,0,
0.4999746, 09:13:46.334,0,0,0,0,0,0,0,0,0,
0.5372772, 09:13:46.370,0,0,0,0,0,0,0,0,0,
0.5842659, 09:13:46.417,0,0,0,0,0,0,0,0,0,
0.6182858, 09:13:46.451,0,0,0,0,0,0,0,0,0,
0.6535922, 09:13:46.488,0,0,0,0,0,0,0,0,0,
0.6920916, 09:13:46.526,0,0,0,0,0,0,0,0,0,
0.7284321, 09:13:46.561,0,0,0,0,0,0,0,0,0,
0.7669086, 09:13:46.600,0,0,0,0,0,0,0,0,0,
0.7989616, 09:13:46.631,0,0,0,0,0,0,0,0,0,
0.8290946, 09:13:46.662,0,0,0,0,0,0,0,0,0,
0.8615233, 09:13:46.695,0,0,0,0,0,0,0,0,0,
0.8959141, 09:13:46.728,0,0,0,0,0,0,0,0,0,
0.9223561, 09:13:46.755,0,0,0,0,0,0,0,0,0,
0.959711, 09:13:46.791,0,0,0,0,0,0,0,0,0,
0.9874297, 09:13:46.819,0,0,0,0,0,0,0,0,0,
1.017094, 09:13:46.849,0,0,0,0,0,0,0,0,0,
1.04545, 09:13:46.879,0,0,0,0,0,0,0,0,0,
1.079277, 09:13:46.911,0,0,0,0,0,0,0,0,0,
1.1085, 09:13:46.942,0,0,0,0,0,0,0,0,0,
1.146073, 09:13:46.979,0,0,0,0,0,0,0,0,0,
1.172987, 09:13:47.006,0,0,0,0,0,0,0,0,0,
1.210602, 09:13:47.045,0,0,0,0,0,0,0,0,0,
1.305794, 09:13:47.141,0,0,0,0,0,0,0,0,0,
1.345462, 09:13:47.177,0,0,0,0,0,0,0,0,0,
1.391558, 09:13:47.319,0,0,0,0,0,0,0,0,0,
Elapsed_Time, System_Time, Euler_Roll, Euler_Pitch, Euler_Yaw, Gyro_Roll, Gyro_Pitch, Gyro_Yaw, Accel_x, Accel_y, Accel_z
0.02, 17:29:29.047,0,0,0,0,0,0,0,0,0,
0.04, 17:29:30.814,0,0,0,0,0,0,0,0,0,
0.3733333, 17:29:41.507,0,0,0,0,0,0,0,0,0,
0.7066667, 17:29:41.955,0,0,0,0,0,0,0,0,0,
0.7553493, 17:29:41.987,0,0,0,0,0,0,0,0,0,
1.039333, 17:29:42.283,0,0,0,0,0,0,0,0,0,
1.085265, 17:29:42.318,0,0,0,0,0,0,0,0,0,
1.119974, 17:29:42.389,0,0,0,0,0,0,0,0,0,
1.339411, 17:29:42.579,0,0,0,0,0,0,0,0,0,
1.437585, 17:29:42.674,0,0,0,0,0,0,0,0,0,
1.645641, 17:29:42.884,0,0,0,0,0,0,0,0,0,
1.776439, 17:29:43.012,0,0,0,0,0,0,0,0,0,
1.935213, 17:29:43.173,0,0,0,0,0,0,0,0,0,
1.971608, 17:29:43.203,0,0,0,0,0,0,0,0,0,
2.097516, 17:29:43.334,0,0,0,0,0,0,0,0,0,
2.206709, 17:29:43.443,0,0,0,0,0,0,0,0,0,
2.253865, 17:29:43.485,0,0,0,0,0,0,0,0,0,
2.281268, 17:29:43.513,0,0,0,0,0,0,0,0,0,
2.483433, 17:29:43.724,0,0,0,0,0,0,0,0,0,
2.574343, 17:29:43.808,0,0,0,0,0,0,0,0,0,
2.658452, 17:29:43.894,0,0,0,0,0,0,0,0,0,
2.698566, 17:29:43.931,0,0,0,0,0,0,0,0,0,
2.734895, 17:29:43.967,0,0,0,0,0,0,0,0,0,
2.800381, 17:29:44.034,0,0,0,0,0,0,0,0,0,
2.83052, 17:29:44.062,0,0,0,0,0,0,0,0,0,
2.935294, 17:29:44.170,0,0,0,0,0,0,0,0,0,
2.963264, 17:29:44.196,0,0,0,0,0,0,0,0,0,
3.014376, 17:29:44.857,0,0,0,0,0,0,0,0,0,
3.34771, 17:29:44.917,0,0,0,0,0,0,0,0,0,
3.681043, 17:29:45.285,0,0,0,0,0,0,0,0,0,
3.955102, 17:29:45.555,0,0,0,0,0,0,0,0,0,
3.994718, 17:29:45.583,0,0,0,0,0,0,0,0,0,
4.10902, 17:29:45.709,0,0,0,0,0,0,0,0,0,
4.214672, 17:29:45.806,0,0,0,0,0,0,0,0,0,
4.25509, 17:29:45.849,0,0,0,0,0,0,0,0,0,
4.297434, 17:29:45.887,0,0,0,0,0,0,0,0,0,
4.333961, 17:29:45.921,0,0,0,0,0,0,0,0,0,
4.368598, 17:29:45.956,0,0,0,0,0,0,0,0,0,
4.395589, 17:29:45.982,0,0,0,0,0,0,0,0,0,
4.421083, 17:29:46.008,0,0,0,0,0,0,0,0,0,
4.448525, 17:29:46.035,0,0,0,0,0,0,0,0,0,
4.474183, 17:29:46.061,0,0,0,0,0,0,0,0,0,
4.502284, 17:29:46.090,0,0,0,0,0,0,0,0,0,
4.530409, 17:29:46.117,0,0,0,0,0,0,0,0,0,
4.554608, 17:29:46.142,0,0,0,0,0,0,0,0,0,
4.57957, 17:29:46.166,0,0,0,0,0,0,0,0,0,
4.603349, 17:29:46.191,0,0,0,0,0,0,0,0,0,
4.63121, 17:29:46.219,0,0,0,0,0,0,0,0,0,
4.65765, 17:29:46.244,0,0,0,0,0,0,0,0,0,
4.684472, 17:29:46.272,0,0,0,0,0,0,0,0,0,
4.712248, 17:29:46.299,0,0,0,0,0,0,0,0,0,
4.742924, 17:29:46.331,0,0,0,0,0,0,0,0,0,
4.8065, 17:29:46.397,0,0,0,0,0,0,0,0,0,
4.845168, 17:29:46.435,0,0,0,0,0,0,0,0,0,
4.877331, 17:29:46.463,0,0,0,0,0,0,0,0,0,
4.903596, 17:29:46.490,0,0,0,0,0,0,0,0,0,
4.931453, 17:29:46.517,0,0,0,0,0,0,0,0,0,
4.999576, 17:29:46.589,0,0,0,0,0,0,0,0,0,
5.026731, 17:29:46.615,0,0,0,0,0,0,0,0,0,
5.061443, 17:29:46.648,0,0,0,0,0,0,0,0,0,
5.089691, 17:29:46.677,0,0,0,0,0,0,0,0,0,
5.115976, 17:29:46.703,0,0,0,0,0,0,0,0,0,
5.142515, 17:29:46.730,0,0,0,0,0,0,0,0,0,
5.169876, 17:29:46.756,0,0,0,0,0,0,0,0,0,
5.193669, 17:29:46.780,0,0,0,0,0,0,0,0,0,
5.241227, 17:29:46.831,0,0,0,0,0,0,0,0,0,
5.272119, 17:29:46.858,0,0,0,0,0,0,0,0,0,
5.299228, 17:29:46.885,0,0,0,0,0,0,0,0,0,
5.328221, 17:29:46.915,0,0,0,0,0,0,0,0,0,
5.354615, 17:29:46.941,0,0,0,0,0,0,0,0,0,
5.380002, 17:29:46.967,0,0,0,0,0,0,0,0,0,
5.405884, 17:29:46.992,0,0,0,0,0,0,0,0,0,
5.451638, 17:29:47.040,0,0,0,0,0,0,0,0,0,
5.479503, 17:29:47.066,0,0,0,0,0,0,0,0,0,
5.505479, 17:29:47.093,0,0,0,0,0,0,0,0,0,
5.534469, 17:29:47.121,0,0,0,0,0,0,0,0,0,
5.560462, 17:29:47.148,0,0,0,0,0,0,0,0,0,
5.588207, 17:29:47.174,0,0,0,0,0,0,0,0,0,
5.613478, 17:29:47.200,0,0,0,0,0,0,0,0,0,
5.644322, 17:29:47.233,0,0,0,0,0,0,0,0,0,
5.670587, 17:29:47.257,0,0,0,0,0,0,0,0,0,
5.696451, 17:29:47.283,0,0,0,0,0,0,0,0,0,
5.749101, 17:29:47.338,0,0,0,0,0,0,0,0,0,
5.776582, 17:29:47.363,0,0,0,0,0,0,0,0,0,
5.817151, 17:29:47.405,0,0,0,0,0,0,0,0,0,
5.85992, 17:29:47.448,0,0,0,0,0,0,0,0,0,
5.886751, 17:29:47.474,0,0,0,0,0,0,0,0,0,
5.914514, 17:29:47.501,0,0,0,0,0,0,0,0,0,
5.944069, 17:29:47.532,0,0,0,0,0,0,0,0,0,
5.977667, 17:29:47.566,0,0,0,0,0,0,0,0,0,
6.005634, 17:29:47.594,0,0,0,0,0,0,0,0,0,
6.057456, 17:29:47.645,0,0,0,0,0,0,0,0,0,
6.083855, 17:29:47.670,0,0,0,0,0,0,0,0,0,
6.109958, 17:29:47.696,0,0,0,0,0,0,0,0,0,
6.152945, 17:29:47.740,0,0,0,0,0,0,0,0,0,
6.195802, 17:29:47.783,0,0,0,0,0,0,0,0,0,
6.221953, 17:29:47.810,0,0,0,0,0,0,0,0,0,
6.249192, 17:29:47.836,0,0,0,0,0,0,0,0,0,
6.276805, 17:29:47.863,0,0,0,0,0,0,0,0,0,
6.301918, 17:29:47.890,0,0,0,0,0,0,0,0,0,
6.327754, 17:29:47.915,0,0,0,0,0,0,0,0,0,
6.352944, 17:29:47.940,0,0,0,0,0,0,0,0,0,
6.378088, 17:29:47.965,0,0,0,0,0,0,0,0,0,
6.402795, 17:29:47.990,0,0,0,0,0,0,0,0,0,
6.429365, 17:29:48.015,0,0,0,0,0,0,0,0,0,
6.454268, 17:29:48.041,0,0,0,0,0,0,0,0,0,
6.481475, 17:29:48.069,0,0,0,0,0,0,0,0,0,
6.508729, 17:29:48.095,0,0,0,0,0,0,0,0,0,
6.53428, 17:29:48.121,0,0,0,0,0,0,0,0,0,
6.5587, 17:29:48.145,0,0,0,0,0,0,0,0,0,
6.584066, 17:29:48.172,0,0,0,0,0,0,0,0,0,
6.611209, 17:29:48.197,0,0,0,0,0,0,0,0,0,
6.636646, 17:29:48.223,0,0,0,0,0,0,0,0,0,
6.661959, 17:29:48.249,0,0,0,0,0,0,0,0,0,
6.687546, 17:29:48.274,0,0,0,0,0,0,0,0,0,
6.712102, 17:29:48.299,0,0,0,0,0,0,0,0,0,
6.737657, 17:29:48.325,0,0,0,0,0,0,0,0,0,
6.763394, 17:29:48.351,0,0,0,0,0,0,0,0,0,
6.789267, 17:29:48.375,0,0,0,0,0,0,0,0,0,
6.813583, 17:29:48.400,0,0,0,0,0,0,0,0,0,
6.838699, 17:29:48.425,0,0,0,0,0,0,0,0,0,
6.863931, 17:29:48.451,0,0,0,0,0,0,0,0,0,
6.889084, 17:29:48.476,0,0,0,0,0,0,0,0,0,
6.914474, 17:29:48.500,0,0,0,0,0,0,0,0,0,
6.943835, 17:29:48.531,0,0,0,0,0,0,0,0,0,
6.969574, 17:29:48.556,0,0,0,0,0,0,0,0,0,
6.994248, 17:29:48.581,0,0,0,0,0,0,0,0,0,
7.019396, 17:29:48.605,0,0,0,0,0,0,0,0,0,
7.043571, 17:29:48.632,0,0,0,0,0,0,0,0,0,
7.075813, 17:29:48.663,0,0,0,0,0,0,0,0,0,
7.106662, 17:29:48.695,0,0,0,0,0,0,0,0,0,
7.142615, 17:29:48.732,0,0,0,0,0,0,0,0,0,
7.173853, 17:29:48.761,0,0,0,0,0,0,0,0,0,
7.201611, 17:29:48.789,0,0,0,0,0,0,0,0,0,
7.233345, 17:29:48.819,0,0,0,0,0,0,0,0,0,
7.274315, 17:29:48.862,0,0,0,0,0,0,0,0,0,
7.302948, 17:29:48.890,0,0,0,0,0,0,0,0,0,
7.329243, 17:29:48.915,0,0,0,0,0,0,0,0,0,
7.373397, 17:29:48.961,0,0,0,0,0,0,0,0,0,
7.416029, 17:29:49.004,0,0,0,0,0,0,0,0,0,
7.441929, 17:29:49.028,0,0,0,0,0,0,0,0,0,
7.484567, 17:29:49.072,0,0,0,0,0,0,0,0,0,
7.510636, 17:29:49.097,0,0,0,0,0,0,0,0,0,
7.535836, 17:29:49.123,0,0,0,0,0,0,0,0,0,
7.562158, 17:29:49.150,0,0,0,0,0,0,0,0,0,
7.587386, 17:29:49.174,0,0,0,0,0,0,0,0,0,
7.622283, 17:29:49.209,0,0,0,0,0,0,0,0,0,
7.657955, 17:29:49.246,0,0,0,0,0,0,0,0,0,
7.693241, 17:29:49.281,0,0,0,0,0,0,0,0,0,
7.788132, 17:29:49.379,0,0,0,0,0,0,0,0,0,
7.844306, 17:29:49.432,0,0,0,0,0,0,0,0,0,
7.871997, 17:29:49.459,0,0,0,0,0,0,0,0,0,
7.922151, 17:29:49.511,0,0,0,0,0,0,0,0,0,
7.982272, 17:29:49.631,0,0,0,0,0,0,0,0,0,
8.070139, 17:29:49.660,0,0,0,0,0,0,0,0,0,
8.098859, 17:29:49.685,0,0,0,0,0,0,0,0,0,
8.130644, 17:29:49.719,0,0,0,0,0,0,0,0,0,
8.171655, 17:29:49.759,0,0,0,0,0,0,0,0,0,
8.395751, 17:29:49.993,0,0,0,0,0,0,0,0,0,
8.43324, 17:29:50.021,0,0,0,0,0,0,0,0,0,
8.525372, 17:29:50.116,0,0,0,0,0,0,0,0,0,
8.613228, 17:29:50.204,0,0,0,0,0,0,0,0,0,
8.654202, 17:29:50.242,0,0,0,0,0,0,0,0,0,
8.683621, 17:29:50.271,0,0,0,0,0,0,0,0,0,
8.71141, 17:29:50.299,0,0,0,0,0,0,0,0,0,
8.740035, 17:29:50.328,0,0,0,0,0,0,0,0,0,
8.76885, 17:29:50.356,0,0,0,0,0,0,0,0,0,
8.796954, 17:29:50.384,0,0,0,0,0,0,0,0,0,
8.832632, 17:29:50.420,0,0,0,0,0,0,0,0,0,
8.862375, 17:29:50.450,0,0,0,0,0,0,0,0,0,
8.892138, 17:29:50.478,0,0,0,0,0,0,0,0,0,
8.923417, 17:29:50.511,0,0,0,0,0,0,0,0,0,
8.952647, 17:29:50.539,0,0,0,0,0,0,0,0,0,
8.983212, 17:29:50.570,0,0,0,0,0,0,0,0,0,
9.012273, 17:29:50.599,0,0,0,0,0,0,0,0,0,
9.039538, 17:29:50.626,0,0,0,0,0,0,0,0,0,
9.115899, 17:29:50.705,0,0,0,0,0,0,0,0,0,
9.145411, 17:29:50.734,0,0,0,0,0,0,0,0,0,
9.181443, 17:29:50.770,0,0,0,0,0,0,0,0,0,
9.23711, 17:29:50.825,0,0,0,0,0,0,0,0,0,
9.276403, 17:29:50.864,0,0,0,0,0,0,0,0,0,
9.322536, 17:29:50.911,0,0,0,0,0,0,0,0,0,
9.351836, 17:29:50.939,0,0,0,0,0,0,0,0,0,
9.3843, 17:29:50.972,0,0,0,0,0,0,0,0,0,
9.415826, 17:29:51.003,0,0,0,0,0,0,0,0,0,
9.454804, 17:29:51.043,0,0,0,0,0,0,0,0,0,
9.484762, 17:29:51.073,0,0,0,0,0,0,0,0,0,
9.514, 17:29:51.101,0,0,0,0,0,0,0,0,0,
9.545846, 17:29:51.133,0,0,0,0,0,0,0,0,0,
9.573112, 17:29:51.160,0,0,0,0,0,0,0,0,0,
9.600821, 17:29:51.188,0,0,0,0,0,0,0,0,0,
9.629145, 17:29:51.215,0,0,0,0,0,0,0,0,0,
9.656762, 17:29:51.244,0,0,0,0,0,0,0,0,0,
9.684229, 17:29:51.271,0,0,0,0,0,0,0,0,0,
9.71242, 17:29:51.299,0,0,0,0,0,0,0,0,0,
9.74048, 17:29:51.328,0,0,0,0,0,0,0,0,0,
9.767883, 17:29:51.354,0,0,0,0,0,0,0,0,0,
9.794621, 17:29:51.381,0,0,0,0,0,0,0,0,0,
9.82021, 17:29:51.407,0,0,0,0,0,0,0,0,0,
9.913781, 17:29:51.504,0,0,0,0,0,0,0,0,0,
9.958121, 17:29:51.546,0,0,0,0,0,0,0,0,0,
10.00189, 17:29:51.592,0,0,0,0,0,0,0,0,0,
10.03266, 17:29:51.619,0,0,0,0,0,0,0,0,0,
10.05909, 17:29:51.647,0,0,0,0,0,0,0,0,0,
10.08629, 17:29:51.675,0,0,0,0,0,0,0,0,0,
10.11567, 17:29:51.703,0,0,0,0,0,0,0,0,0,
10.14242, 17:29:51.730,0,0,0,0,0,0,0,0,0,
10.17007, 17:29:51.757,0,0,0,0,0,0,0,0,0,
10.20729, 17:29:51.795,0,0,0,0,0,0,0,0,0,
10.23552, 17:29:51.822,0,0,0,0,0,0,0,0,0,
10.26523, 17:29:51.853,0,0,0,0,0,0,0,0,0,
10.29618, 17:29:51.883,0,0,0,0,0,0,0,0,0,
10.32297, 17:29:51.911,0,0,0,0,0,0,0,0,0,
10.35595, 17:29:51.942,0,0,0,0,0,0,0,0,0,
10.38217, 17:29:51.970,0,0,0,0,0,0,0,0,0,
10.45175, 17:29:52.040,0,0,0,0,0,0,0,0,0,
10.48145, 17:29:52.070,0,0,0,0,0,0,0,0,0,
10.53257, 17:29:52.120,0,0,0,0,0,0,0,0,0,
10.57641, 17:29:52.164,0,0,0,0,0,0,0,0,0,
10.61489, 17:29:52.203,0,0,0,0,0,0,0,0,0,
10.64597, 17:29:52.234,0,0,0,0,0,0,0,0,0,
10.6919, 17:29:52.279,0,0,0,0,0,0,0,0,0,
10.73671, 17:29:52.324,0,0,0,0,0,0,0,0,0,
10.78132, 17:29:52.370,0,0,0,0,0,0,0,0,0,
10.82648, 17:29:52.414,0,0,0,0,0,0,0,0,0,
10.87089, 17:29:52.459,0,0,0,0,0,0,0,0,0,
10.91715, 17:29:52.504,0,0,0,0,0,0,0,0,0,
10.96291, 17:29:52.551,0,0,0,0,0,0,0,0,0,
10.99204, 17:29:52.578,0,0,0,0,0,0,0,0,0,
11.02054, 17:29:52.609,0,0,0,0,0,0,0,0,0,
11.06073, 17:29:52.649,0,0,0,0,0,0,0,0,0,
11.08985, 17:29:52.677,0,0,0,0,0,0,0,0,0,
11.11772, 17:29:52.704,0,0,0,0,0,0,0,0,0,
11.14499, 17:29:52.733,0,0,0,0,0,0,0,0,0,
11.17383, 17:29:52.761,0,0,0,0,0,0,0,0,0,
11.2017, 17:29:52.789,0,0,0,0,0,0,0,0,0,
11.22945, 17:29:52.817,0,0,0,0,0,0,0,0,0,
11.25904, 17:29:52.847,0,0,0,0,0,0,0,0,0,
11.28824, 17:29:52.875,0,0,0,0,0,0,0,0,0,
11.32137, 17:29:52.909,0,0,0,0,0,0,0,0,0,
11.35172, 17:29:52.938,0,0,0,0,0,0,0,0,0,
11.37875, 17:29:52.965,0,0,0,0,0,0,0,0,0,
11.40633, 17:29:52.994,0,0,0,0,0,0,0,0,0,
11.43388, 17:29:53.020,0,0,0,0,0,0,0,0,0,
11.46093, 17:29:53.048,0,0,0,0,0,0,0,0,0,
11.4877, 17:29:53.074,0,0,0,0,0,0,0,0,0,
11.51485, 17:29:53.102,0,0,0,0,0,0,0,0,0,
11.54231, 17:29:53.130,0,0,0,0,0,0,0,0,0,
11.57018, 17:29:53.157,0,0,0,0,0,0,0,0,0,
11.5969, 17:29:53.183,0,0,0,0,0,0,0,0,0,
11.62621, 17:29:53.214,0,0,0,0,0,0,0,0,0,
11.65547, 17:29:53.242,0,0,0,0,0,0,0,0,0,
11.6822, 17:29:53.270,0,0,0,0,0,0,0,0,0,
11.71864, 17:29:53.305,0,0,0,0,0,0,0,0,0,
11.76401, 17:29:53.354,0,0,0,0,0,0,0,0,0,
11.81533, 17:29:53.403,0,0,0,0,0,0,0,0,0,
11.8439, 17:29:53.432,0,0,0,0,0,0,0,0,0,
11.87599, 17:29:53.463,0,0,0,0,0,0,0,0,0,
11.90679, 17:29:53.493,0,0,0,0,0,0,0,0,0,
11.95013, 17:29:53.537,0,0,0,0,0,0,0,0,0,
11.97732, 17:29:53.563,0,0,0,0,0,0,0,0,0,
12.00288, 17:29:53.590,0,0,0,0,0,0,0,0,0,
12.03015, 17:29:53.617,0,0,0,0,0,0,0,0,0,
12.05743, 17:29:53.644,0,0,0,0,0,0,0,0,0,
12.08392, 17:29:53.672,0,0,0,0,0,0,0,0,0,
12.11055, 17:29:53.697,0,0,0,0,0,0,0,0,0,
12.13676, 17:29:53.723,0,0,0,0,0,0,0,0,0,
12.16338, 17:29:53.751,0,0,0,0,0,0,0,0,0,
12.19179, 17:29:53.779,0,0,0,0,0,0,0,0,0,
12.21884, 17:29:53.806,0,0,0,0,0,0,0,0,0,
12.24676, 17:29:53.835,0,0,0,0,0,0,0,0,0,
12.27584, 17:29:53.861,0,0,0,0,0,0,0,0,0,
12.30218, 17:29:53.889,0,0,0,0,0,0,0,0,0,
12.32839, 17:29:53.914,0,0,0,0,0,0,0,0,0,
12.35357, 17:29:53.939,0,0,0,0,0,0,0,0,0,
12.37953, 17:29:53.965,0,0,0,0,0,0,0,0,0,
12.40564, 17:29:53.993,0,0,0,0,0,0,0,0,0,
12.43133, 17:29:54.018,0,0,0,0,0,0,0,0,0,
12.45762, 17:29:54.045,0,0,0,0,0,0,0,0,0,
12.48451, 17:29:54.071,0,0,0,0,0,0,0,0,0,
12.51176, 17:29:54.099,0,0,0,0,0,0,0,0,0,
12.53891, 17:29:54.125,0,0,0,0,0,0,0,0,0,
12.56563, 17:29:54.153,0,0,0,0,0,0,0,0,0,
12.59238, 17:29:54.179,0,0,0,0,0,0,0,0,0,
12.6184, 17:29:54.204,0,0,0,0,0,0,0,0,0,
12.64561, 17:29:54.232,0,0,0,0,0,0,0,0,0,
12.67274, 17:29:54.260,0,0,0,0,0,0,0,0,0,
12.70086, 17:29:54.288,0,0,0,0,0,0,0,0,0,
12.72879, 17:29:54.314,0,0,0,0,0,0,0,0,0,
12.75389, 17:29:54.340,0,0,0,0,0,0,0,0,0,
12.78174, 17:29:54.368,0,0,0,0,0,0,0,0,0,
12.80965, 17:29:54.396,0,0,0,0,0,0,0,0,0,
12.83595, 17:29:54.423,0,0,0,0,0,0,0,0,0,
12.86481, 17:29:54.452,0,0,0,0,0,0,0,0,0,
12.89514, 17:29:54.482,0,0,0,0,0,0,0,0,0,
12.92663, 17:29:54.515,0,0,0,0,0,0,0,0,0,
12.95984, 17:29:54.547,0,0,0,0,0,0,0,0,0,
12.98663, 17:29:54.575,0,0,0,0,0,0,0,0,0,
13.01519, 17:29:54.602,0,0,0,0,0,0,0,0,0,
13.04071, 17:29:54.628,0,0,0,0,0,0,0,0,0,
13.06754, 17:29:54.654,0,0,0,0,0,0,0,0,0,
13.09265, 17:29:54.679,0,0,0,0,0,0,0,0,0,
13.1224, 17:29:54.710,0,0,0,0,0,0,0,0,0,
13.14908, 17:29:54.735,0,0,0,0,0,0,0,0,0,
13.17485, 17:29:54.762,0,0,0,0,0,0,0,0,0,
13.20074, 17:29:54.787,0,0,0,0,0,0,0,0,0,
13.22764, 17:29:54.813,0,0,0,0,0,0,0,0,0,
13.25619, 17:29:54.842,0,0,0,0,0,0,0,0,0,
13.28388, 17:29:54.871,0,0,0,0,0,0,0,0,0,
13.31285, 17:29:54.899,0,0,0,0,0,0,0,0,0,
13.33903, 17:29:54.925,0,0,0,0,0,0,0,0,0,
13.36466, 17:29:54.952,0,0,0,0,0,0,0,0,0,
13.38947, 17:29:54.975,0,0,0,0,0,0,0,0,0,
13.41447, 17:29:55.001,0,0,0,0,0,0,0,0,0,
13.44138, 17:29:55.028,0,0,0,0,0,0,0,0,0,
13.46777, 17:29:55.054,0,0,0,0,0,0,0,0,0,
13.49348, 17:29:55.080,0,0,0,0,0,0,0,0,0,
13.5217, 17:29:55.109,0,0,0,0,0,0,0,0,0,
13.54809, 17:29:55.135,0,0,0,0,0,0,0,0,0,
13.68202, 17:29:55.275,0,0,0,0,0,0,0,0,0,
13.82227, 17:29:55.415,0,0,0,0,0,0,0,0,0,
13.96405, 17:29:55.557,0,0,0,0,0,0,0,0,0,
14.13357, 17:29:55.727,0,0,0,0,0,0,0,0,0,
14.27948, 17:29:55.872,0,0,0,0,0,0,0,0,0,
14.41815, 17:29:56.011,0,0,0,0,0,0,0,0,0,
14.55868, 17:29:56.152,0,0,0,0,0,0,0,0,0,
14.69753, 17:29:56.291,0,0,0,0,0,0,0,0,0,
14.83542, 17:29:56.428,0,0,0,0,0,0,0,0,0,
14.97316, 17:29:56.565,0,0,0,0,0,0,0,0,0,
15.12064, 17:29:56.714,0,0,0,0,0,0,0,0,0,
15.30342, 17:29:56.898,0,0,0,0,0,0,0,0,0,
15.44539, 17:29:57.038,0,0,0,0,0,0,0,0,0,
15.58625, 17:29:57.180,0,0,0,0,0,0,0,0,0,
15.72423, 17:29:57.318,0,0,0,0,0,0,0,0,0,
15.86173, 17:29:57.455,0,0,0,0,0,0,0,0,0,
15.99796, 17:29:57.589,0,0,0,0,0,0,0,0,0,
16.02999, 17:29:57.617,0,0,0,0,0,0,0,0,0,
16.16604, 17:29:57.760,0,0,0,0,0,0,0,0,0,
16.27202, 17:29:57.864,0,0,0,0,0,0,0,0,0,
16.31325, 17:29:57.902,0,0,0,0,0,0,0,0,0,
16.34751, 17:29:57.936,0,0,0,0,0,0,0,0,0,
16.3791, 17:29:57.967,0,0,0,0,0,0,0,0,0,
16.41642, 17:29:58.005,0,0,0,0,0,0,0,0,0,
16.44791, 17:29:58.036,0,0,0,0,0,0,0,0,0,
16.47607, 17:29:58.063,0,0,0,0,0,0,0,0,0,
16.50833, 17:29:58.096,0,0,0,0,0,0,0,0,0,
16.54671, 17:29:58.134,0,0,0,0,0,0,0,0,0,
16.57509, 17:29:58.161,0,0,0,0,0,0,0,0,0,
16.60163, 17:29:58.188,0,0,0,0,0,0,0,0,0,
16.62775, 17:29:58.213,0,0,0,0,0,0,0,0,0,
16.65491, 17:29:58.242,0,0,0,0,0,0,0,0,0,
16.68213, 17:29:58.270,0,0,0,0,0,0,0,0,0,
16.70968, 17:29:58.296,0,0,0,0,0,0,0,0,0,
16.73583, 17:29:58.322,0,0,0,0,0,0,0,0,0,
16.7618, 17:29:58.349,0,0,0,0,0,0,0,0,0,
16.78896, 17:29:58.376,0,0,0,0,0,0,0,0,0,
16.81616, 17:29:58.403,0,0,0,0,0,0,0,0,0,
16.8436, 17:29:58.432,0,0,0,0,0,0,0,0,0,
16.87312, 17:29:58.459,0,0,0,0,0,0,0,0,0,
16.90122, 17:29:58.489,0,0,0,0,0,0,0,0,0,
16.93029, 17:29:58.518,0,0,0,0,0,0,0,0,0,
16.95761, 17:29:58.544,0,0,0,0,0,0,0,0,0,
16.98603, 17:29:58.574,0,0,0,0,0,0,0,0,0,
17.01407, 17:29:58.601,0,0,0,0,0,0,0,0,0,
17.04251, 17:29:58.630,0,0,0,0,0,0,0,0,0,
17.07113, 17:29:58.658,0,0,0,0,0,0,0,0,0,
17.09921, 17:29:58.686,0,0,0,0,0,0,0,0,0,
17.12471, 17:29:58.713,0,0,0,0,0,0,0,0,0,
17.15289, 17:29:58.739,0,0,0,0,0,0,0,0,0,
17.17924, 17:29:58.766,0,0,0,0,0,0,0,0,0,
17.20567, 17:29:58.794,0,0,0,0,0,0,0,0,0,
17.24171, 17:29:58.828,0,0,0,0,0,0,0,0,0,
17.28338, 17:29:58.870,0,0,0,0,0,0,0,0,0,
17.31025, 17:29:58.896,0,0,0,0,0,0,0,0,0,
17.33613, 17:29:58.922,0,0,0,0,0,0,0,0,0,
17.3623, 17:29:58.949,0,0,0,0,0,0,0,0,0,
17.38966, 17:29:58.976,0,0,0,0,0,0,0,0,0,
17.47256, 17:29:59.062,0,0,0,0,0,0,0,0,0,
17.55479, 17:29:59.145,0,0,0,0,0,0,0,0,0,
17.60007, 17:29:59.189,0,0,0,0,0,0,0,0,0,
17.65118, 17:29:59.239,0,0,0,0,0,0,0,0,0,
17.71186, 17:29:59.299,0,0,0,0,0,0,0,0,0,
17.74994, 17:29:59.337,0,0,0,0,0,0,0,0,0,
17.78749, 17:29:59.375,0,0,0,0,0,0,0,0,0,
17.81923, 17:29:59.405,0,0,0,0,0,0,0,0,0,
17.84594, 17:29:59.434,0,0,0,0,0,0,0,0,0,
17.87297, 17:29:59.460,0,0,0,0,0,0,0,0,0,
17.90092, 17:29:59.488,0,0,0,0,0,0,0,0,0,
17.92766, 17:29:59.514,0,0,0,0,0,0,0,0,0,
17.95483, 17:29:59.542,0,0,0,0,0,0,0,0,0,
17.98227, 17:29:59.570,0,0,0,0,0,0,0,0,0,
18.01324, 17:29:59.602,0,0,0,0,0,0,0,0,0,
18.04063, 17:29:59.628,0,0,0,0,0,0,0,0,0,
18.06743, 17:29:59.654,0,0,0,0,0,0,0,0,0,
18.09427, 17:29:59.680,0,0,0,0,0,0,0,0,0,
18.1209, 17:29:59.708,0,0,0,0,0,0,0,0,0,
18.14809, 17:29:59.734,0,0,0,0,0,0,0,0,0,
18.17407, 17:29:59.760,0,0,0,0,0,0,0,0,0,
18.20003, 17:29:59.788,0,0,0,0,0,0,0,0,0,
18.23012, 17:29:59.817,0,0,0,0,0,0,0,0,0,
18.25725, 17:29:59.844,0,0,0,0,0,0,0,0,0,
18.28709, 17:29:59.875,0,0,0,0,0,0,0,0,0,
18.31551, 17:29:59.903,0,0,0,0,0,0,0,0,0,
18.34349, 17:29:59.931,0,0,0,0,0,0,0,0,0,
18.38011, 17:29:59.968,0,0,0,0,0,0,0,0,0,
18.41201, 17:29:59.999,0,0,0,0,0,0,0,0,0,
18.44238, 17:30:00.029,0,0,0,0,0,0,0,0,0,
18.47221, 17:30:00.058,0,0,0,0,0,0,0,0,0,
18.50208, 17:30:00.089,0,0,0,0,0,0,0,0,0,
18.53095, 17:30:00.117,0,0,0,0,0,0,0,0,0,
18.55926, 17:30:00.146,0,0,0,0,0,0,0,0,0,
18.58723, 17:30:00.174,0,0,0,0,0,0,0,0,0,
18.61581, 17:30:00.202,0,0,0,0,0,0,0,0,0,
18.646, 17:30:00.234,0,0,0,0,0,0,0,0,0,
18.69989, 17:30:00.289,0,0,0,0,0,0,0,0,0,
18.7391, 17:30:00.328,0,0,0,0,0,0,0,0,0,
18.76907, 17:30:00.357,0,0,0,0,0,0,0,0,0,
18.79991, 17:30:00.386,0,0,0,0,0,0,0,0,0,
18.83493, 17:30:00.422,0,0,0,0,0,0,0,0,0,
18.87553, 17:30:00.463,0,0,0,0,0,0,0,0,0,
18.90471, 17:30:00.492,0,0,0,0,0,0,0,0,0,
18.93166, 17:30:00.518,0,0,0,0,0,0,0,0,0,
18.95724, 17:30:00.544,0,0,0,0,0,0,0,0,0,
18.98592, 17:30:00.573,0,0,0,0,0,0,0,0,0,
19.01291, 17:30:00.600,0,0,0,0,0,0,0,0,0,
19.03909, 17:30:00.625,0,0,0,0,0,0,0,0,0,
19.06454, 17:30:00.653,0,0,0,0,0,0,0,0,0,
19.09296, 17:30:00.680,0,0,0,0,0,0,0,0,0,
19.12494, 17:30:00.714,0,0,0,0,0,0,0,0,0,
19.15792, 17:30:00.746,0,0,0,0,0,0,0,0,0,
19.18804, 17:30:00.775,0,0,0,0,0,0,0,0,0,
19.22172, 17:30:00.808,0,0,0,0,0,0,0,0,0,
19.26231, 17:30:00.850,0,0,0,0,0,0,0,0,0,
19.29068, 17:30:00.877,0,0,0,0,0,0,0,0,0,
19.31683, 17:30:00.903,0,0,0,0,0,0,0,0,0,
19.34863, 17:30:00.936,0,0,0,0,0,0,0,0,0,
19.37666, 17:30:00.963,0,0,0,0,0,0,0,0,0,
19.40352, 17:30:00.991,0,0,0,0,0,0,0,0,0,
19.43143, 17:30:01.018,0,0,0,0,0,0,0,0,0,
19.45822, 17:30:01.044,0,0,0,0,0,0,0,0,0,
19.48502, 17:30:01.073,0,0,0,0,0,0,0,0,0,
19.51272, 17:30:01.099,0,0,0,0,0,0,0,0,0,
19.54356, 17:30:01.131,0,0,0,0,0,0,0,0,0,
19.57181, 17:30:01.158,0,0,0,0,0,0,0,0,0,
19.5983, 17:30:01.185,0,0,0,0,0,0,0,0,0,
19.62603, 17:30:01.213,0,0,0,0,0,0,0,0,0,
19.65301, 17:30:01.239,0,0,0,0,0,0,0,0,0,
19.67996, 17:30:01.266,0,0,0,0,0,0,0,0,0,
19.7072, 17:30:01.295,0,0,0,0,0,0,0,0,0,
19.73555, 17:30:01.321,0,0,0,0,0,0,0,0,0,
19.76201, 17:30:01.350,0,0,0,0,0,0,0,0,0,
19.78931, 17:30:01.376,0,0,0,0,0,0,0,0,0,
19.81812, 17:30:01.405,0,0,0,0,0,0,0,0,0,
19.84914, 17:30:01.439,0,0,0,0,0,0,0,0,0,
19.88331, 17:30:01.472,0,0,0,0,0,0,0,0,0,
19.91791, 17:30:01.505,0,0,0,0,0,0,0,0,0,
19.94767, 17:30:01.536,0,0,0,0,0,0,0,0,0,
19.97854, 17:30:01.564,0,0,0,0,0,0,0,0,0,
20.00459, 17:30:01.592,0,0,0,0,0,0,0,0,0,
20.03338, 17:30:01.620,0,0,0,0,0,0,0,0,0,
20.06062, 17:30:01.648,0,0,0,0,0,0,0,0,0,
20.08876, 17:30:01.676,0,0,0,0,0,0,0,0,0,
20.11532, 17:30:01.702,0,0,0,0,0,0,0,0,0,
20.14153, 17:30:01.729,0,0,0,0,0,0,0,0,0,
20.16971, 17:30:01.756,0,0,0,0,0,0,0,0,0,
20.19598, 17:30:01.783,0,0,0,0,0,0,0,0,0,
20.22315, 17:30:01.811,0,0,0,0,0,0,0,0,0,
20.28456, 17:30:01.876,0,0,0,0,0,0,0,0,0,
20.3181, 17:30:01.904,0,0,0,0,0,0,0,0,0,
20.3506, 17:30:01.938,0,0,0,0,0,0,0,0,0,
20.40051, 17:30:01.990,0,0,0,0,0,0,0,0,0,
20.42976, 17:30:02.017,0,0,0,0,0,0,0,0,0,
20.45695, 17:30:02.044,0,0,0,0,0,0,0,0,0,
20.48502, 17:30:02.072,0,0,0,0,0,0,0,0,0,
20.51522, 17:30:02.102,0,0,0,0,0,0,0,0,0,
20.56178, 17:30:02.151,0,0,0,0,0,0,0,0,0,
20.59222, 17:30:02.179,0,0,0,0,0,0,0,0,0,
20.62017, 17:30:02.208,0,0,0,0,0,0,0,0,0,
20.65749, 17:30:02.245,0,0,0,0,0,0,0,0,0,
20.68674, 17:30:02.275,0,0,0,0,0,0,0,0,0,
20.71996, 17:30:02.307,0,0,0,0,0,0,0,0,0,
20.74667, 17:30:02.334,0,0,0,0,0,0,0,0,0,
20.77623, 17:30:02.364,0,0,0,0,0,0,0,0,0,
20.80301, 17:30:02.390,0,0,0,0,0,0,0,0,0,
20.83208, 17:30:02.419,0,0,0,0,0,0,0,0,0,
20.85989, 17:30:02.446,0,0,0,0,0,0,0,0,0,
20.88741, 17:30:02.475,0,0,0,0,0,0,0,0,0,
20.91621, 17:30:02.503,0,0,0,0,0,0,0,0,0,
20.94347, 17:30:02.532,0,0,0,0,0,0,0,0,0,
20.9732, 17:30:02.561,0,0,0,0,0,0,0,0,0,
21.00327, 17:30:02.593,0,0,0,0,0,0,0,0,0,
21.03441, 17:30:02.621,0,0,0,0,0,0,0,0,0,
21.07258, 17:30:02.660,0,0,0,0,0,0,0,0,0,
21.1026, 17:30:02.690,0,0,0,0,0,0,0,0,0,
21.13247, 17:30:02.719,0,0,0,0,0,0,0,0,0,
21.15862, 17:30:02.745,0,0,0,0,0,0,0,0,0,
21.18554, 17:30:02.773,0,0,0,0,0,0,0,0,0,
21.21375, 17:30:02.801,0,0,0,0,0,0,0,0,0,
21.23995, 17:30:02.827,0,0,0,0,0,0,0,0,0,
21.26862, 17:30:02.856,0,0,0,0,0,0,0,0,0,
21.3006, 17:30:02.889,0,0,0,0,0,0,0,0,0,
21.32922, 17:30:02.915,0,0,0,0,0,0,0,0,0,
21.35509, 17:30:02.943,0,0,0,0,0,0,0,0,0,
21.40571, 17:30:02.994,0,0,0,0,0,0,0,0,0,
21.43527, 17:30:03.022,0,0,0,0,0,0,0,0,0,
21.46288, 17:30:03.049,0,0,0,0,0,0,0,0,0,
21.49472, 17:30:03.081,0,0,0,0,0,0,0,0,0,
21.52219, 17:30:03.109,0,0,0,0,0,0,0,0,0,
21.56096, 17:30:03.149,0,0,0,0,0,0,0,0,0,
21.5876, 17:30:03.174,0,0,0,0,0,0,0,0,0,
21.62823, 17:30:03.215,0,0,0,0,0,0,0,0,0,
21.65476, 17:30:03.242,0,0,0,0,0,0,0,0,0,
21.69464, 17:30:03.282,0,0,0,0,0,0,0,0,0,
21.72114, 17:30:03.309,0,0,0,0,0,0,0,0,0,
21.76182, 17:30:03.349,0,0,0,0,0,0,0,0,0,
21.78893, 17:30:03.375,0,0,0,0,0,0,0,0,0,
21.82777, 17:30:03.415,0,0,0,0,0,0,0,0,0,
21.85465, 17:30:03.441,0,0,0,0,0,0,0,0,0,
21.89438, 17:30:03.481,0,0,0,0,0,0,0,0,0,
21.92203, 17:30:03.510,0,0,0,0,0,0,0,0,0,
21.962, 17:30:03.550,0,0,0,0,0,0,0,0,0,
21.98917, 17:30:03.576,0,0,0,0,0,0,0,0,0,
22.02874, 17:30:03.617,0,0,0,0,0,0,0,0,0,
22.05697, 17:30:03.644,0,0,0,0,0,0,0,0,0,
22.09507, 17:30:03.683,0,0,0,0,0,0,0,0,0,
22.12343, 17:30:03.712,0,0,0,0,0,0,0,0,0,
22.16261, 17:30:03.750,0,0,0,0,0,0,0,0,0,
22.19965, 17:30:03.786,0,0,0,0,0,0,0,0,0,
22.23325, 17:30:03.821,0,0,0,0,0,0,0,0,0,
22.26687, 17:30:03.856,0,0,0,0,0,0,0,0,0,
22.29654, 17:30:03.883,0,0,0,0,0,0,0,0,0,
22.32316, 17:30:03.911,0,0,0,0,0,0,0,0,0,
22.36123, 17:30:03.948,0,0,0,0,0,0,0,0,0,
22.38669, 17:30:03.973,0,0,0,0,0,0,0,0,0,
22.42853, 17:30:04.015,0,0,0,0,0,0,0,0,0,
22.45483, 17:30:04.041,0,0,0,0,0,0,0,0,0,
22.49481, 17:30:04.083,0,0,0,0,0,0,0,0,0,
22.52236, 17:30:04.110,0,0,0,0,0,0,0,0,0,
22.56083, 17:30:04.149,0,0,0,0,0,0,0,0,0,
22.5879, 17:30:04.174,0,0,0,0,0,0,0,0,0,
22.62849, 17:30:04.216,0,0,0,0,0,0,0,0,0,
22.65433, 17:30:04.241,0,0,0,0,0,0,0,0,0,
22.69529, 17:30:04.283,0,0,0,0,0,0,0,0,0,
22.72189, 17:30:04.310,0,0,0,0,0,0,0,0,0,
22.76116, 17:30:04.349,0,0,0,0,0,0,0,0,0,
22.79028, 17:30:04.377,0,0,0,0,0,0,0,0,0,
22.82804, 17:30:04.415,0,0,0,0,0,0,0,0,0,
22.85472, 17:30:04.441,0,0,0,0,0,0,0,0,0,
22.89521, 17:30:04.482,0,0,0,0,0,0,0,0,0,
22.92498, 17:30:04.513,0,0,0,0,0,0,0,0,0,
22.96055, 17:30:04.549,0,0,0,0,0,0,0,0,0,
22.98879, 17:30:04.577,0,0,0,0,0,0,0,0,0,
23.02805, 17:30:04.617,0,0,0,0,0,0,0,0,0,
23.05643, 17:30:04.644,0,0,0,0,0,0,0,0,0,
23.09506, 17:30:04.684,0,0,0,0,0,0,0,0,0,
23.12295, 17:30:04.710,0,0,0,0,0,0,0,0,0,
23.1613, 17:30:04.748,0,0,0,0,0,0,0,0,0,
23.18693, 17:30:04.773,0,0,0,0,0,0,0,0,0,
23.22845, 17:30:04.816,0,0,0,0,0,0,0,0,0,
23.25645, 17:30:04.843,0,0,0,0,0,0,0,0,0,
23.29513, 17:30:04.883,0,0,0,0,0,0,0,0,0,
23.32576, 17:30:04.915,0,0,0,0,0,0,0,0,0,
23.36299, 17:30:04.951,0,0,0,0,0,0,0,0,0,
23.39192, 17:30:04.979,0,0,0,0,0,0,0,0,0,
23.42855, 17:30:05.016,0,0,0,0,0,0,0,0,0,
23.45593, 17:30:05.043,0,0,0,0,0,0,0,0,0,
23.54708, 17:30:05.138,0,0,0,0,0,0,0,0,0,
23.57791, 17:30:05.164,0,0,0,0,0,0,0,0,0,
23.60491, 17:30:05.193,0,0,0,0,0,0,0,0,0,
23.63742, 17:30:05.225,0,0,0,0,0,0,0,0,0,
23.6645, 17:30:05.252,0,0,0,0,0,0,0,0,0,
23.69623, 17:30:05.284,0,0,0,0,0,0,0,0,0,
23.72326, 17:30:05.311,0,0,0,0,0,0,0,0,0,
23.76298, 17:30:05.351,0,0,0,0,0,0,0,0,0,
23.79135, 17:30:05.378,0,0,0,0,0,0,0,0,0,
23.82795, 17:30:05.416,0,0,0,0,0,0,0,0,0,
23.85621, 17:30:05.442,0,0,0,0,0,0,0,0,0,
23.89571, 17:30:05.483,0,0,0,0,0,0,0,0,0,
23.92341, 17:30:05.512,0,0,0,0,0,0,0,0,0,
23.96168, 17:30:05.550,0,0,0,0,0,0,0,0,0,
23.99117, 17:30:05.578,0,0,0,0,0,0,0,0,0,
24.02758, 17:30:05.615,0,0,0,0,0,0,0,0,0,
24.05594, 17:30:05.643,0,0,0,0,0,0,0,0,0,
24.09492, 17:30:05.683,0,0,0,0,0,0,0,0,0,
24.12241, 17:30:05.711,0,0,0,0,0,0,0,0,0,
24.16221, 17:30:05.750,0,0,0,0,0,0,0,0,0,
24.20845, 17:30:05.796,0,0,0,0,0,0,0,0,0,
24.23526, 17:30:05.822,0,0,0,0,0,0,0,0,0,
24.26317, 17:30:05.852,0,0,0,0,0,0,0,0,0,
24.29481, 17:30:05.882,0,0,0,0,0,0,0,0,0,
24.32203, 17:30:05.910,0,0,0,0,0,0,0,0,0,
24.3607, 17:30:05.949,0,0,0,0,0,0,0,0,0,
24.44198, 17:30:06.032,0,0,0,0,0,0,0,0,0,
24.47887, 17:30:06.065,0,0,0,0,0,0,0,0,0,
Elapsed_Time, System_Time, Euler_Roll, Euler_Pitch, Euler_Yaw, Gyro_Roll, Gyro_Pitch, Gyro_Yaw, Accel_x, Accel_y, Accel_z
0.02, 17:31:17.460,0,0,0,0,0,0,0,0,0,
0.04, 17:31:17.856,0,0,0,0,0,0,0,0,0,
0.3733333, 17:31:18.548,0,0,0,0,0,0,0,0,0,
0.4343151, 17:31:18.598,0,0,0,0,0,0,0,0,0,
0.483316, 17:31:18.645,0,0,0,0,0,0,0,0,0,
0.5972836, 17:31:18.762,0,0,0,0,0,0,0,0,0,
0.6850977, 17:31:18.851,0,0,0,0,0,0,0,0,0,
0.7290296, 17:31:18.892,0,0,0,0,0,0,0,0,0,
0.8034738, 17:31:18.966,0,0,0,0,0,0,0,0,0,
0.8542532, 17:31:19.015,0,0,0,0,0,0,0,0,0,
0.8825889, 17:31:19.044,0,0,0,0,0,0,0,0,0,
0.9138952, 17:31:19.074,0,0,0,0,0,0,0,0,0,
0.9730398, 17:31:19.136,0,0,0,0,0,0,0,0,0,
1.005775, 17:31:19.167,0,0,0,0,0,0,0,0,0,
1.033461, 17:31:19.194,0,0,0,0,0,0,0,0,0,
1.063667, 17:31:19.226,0,0,0,0,0,0,0,0,0,
1.093397, 17:31:19.254,0,0,0,0,0,0,0,0,0,
1.132252, 17:31:19.294,0,0,0,0,0,0,0,0,0,
1.465585, 17:31:19.721,0,0,0,0,0,0,0,0,0,
1.507238, 17:31:19.749,0,0,0,0,0,0,0,0,0,
1.543712, 17:31:19.787,0,0,0,0,0,0,0,0,0,
1.574304, 17:31:19.816,0,0,0,0,0,0,0,0,0,
1.602146, 17:31:19.845,0,0,0,0,0,0,0,0,0,
1.637665, 17:31:19.880,0,0,0,0,0,0,0,0,0,
1.665785, 17:31:19.909,0,0,0,0,0,0,0,0,0,
1.695954, 17:31:19.938,0,0,0,0,0,0,0,0,0,
1.764114, 17:31:20.010,0,0,0,0,0,0,0,0,0,
1.794983, 17:31:20.037,0,0,0,0,0,0,0,0,0,
1.822057, 17:31:20.152,0,0,0,0,0,0,0,0,0,
1.943833, 17:31:20.191,0,0,0,0,0,0,0,0,0,
2.009634, 17:31:20.254,0,0,0,0,0,0,0,0,0,
2.170301, 17:31:20.420,0,0,0,0,0,0,0,0,0,
2.208531, 17:31:20.454,0,0,0,0,0,0,0,0,0,
2.291408, 17:31:20.536,0,0,0,0,0,0,0,0,0,
2.318728, 17:31:20.561,0,0,0,0,0,0,0,0,0,
2.346093, 17:31:20.589,0,0,0,0,0,0,0,0,0,
2.374787, 17:31:20.618,0,0,0,0,0,0,0,0,0,
2.402339, 17:31:20.646,0,0,0,0,0,0,0,0,0,
2.432251, 17:31:20.675,0,0,0,0,0,0,0,0,0,
2.458501, 17:31:20.700,0,0,0,0,0,0,0,0,0,
2.483671, 17:31:20.727,0,0,0,0,0,0,0,0,0,
2.509187, 17:31:20.751,0,0,0,0,0,0,0,0,0,
2.533814, 17:31:20.776,0,0,0,0,0,0,0,0,0,
2.559489, 17:31:20.802,0,0,0,0,0,0,0,0,0,
2.586455, 17:31:20.830,0,0,0,0,0,0,0,0,0,
2.614043, 17:31:20.857,0,0,0,0,0,0,0,0,0,
2.639657, 17:31:20.881,0,0,0,0,0,0,0,0,0,
2.666921, 17:31:20.910,0,0,0,0,0,0,0,0,0,
2.693811, 17:31:20.936,0,0,0,0,0,0,0,0,0,
2.719421, 17:31:20.961,0,0,0,0,0,0,0,0,0,
2.744952, 17:31:20.987,0,0,0,0,0,0,0,0,0,
2.772085, 17:31:21.014,0,0,0,0,0,0,0,0,0,
2.797719, 17:31:21.039,0,0,0,0,0,0,0,0,0,
2.824002, 17:31:21.067,0,0,0,0,0,0,0,0,0,
2.849664, 17:31:21.092,0,0,0,0,0,0,0,0,0,
2.942979, 17:31:21.189,0,0,0,0,0,0,0,0,0,
2.971693, 17:31:21.214,0,0,0,0,0,0,0,0,0,
2.998359, 17:31:21.241,0,0,0,0,0,0,0,0,0,
3.023861, 17:31:21.267,0,0,0,0,0,0,0,0,0,
3.050182, 17:31:21.291,0,0,0,0,0,0,0,0,0,
3.076552, 17:31:21.318,0,0,0,0,0,0,0,0,0,
3.101759, 17:31:21.344,0,0,0,0,0,0,0,0,0,
3.127194, 17:31:21.369,0,0,0,0,0,0,0,0,0,
3.155556, 17:31:21.398,0,0,0,0,0,0,0,0,0,
3.181552, 17:31:21.424,0,0,0,0,0,0,0,0,0,
3.208519, 17:31:21.450,0,0,0,0,0,0,0,0,0,
3.233499, 17:31:21.476,0,0,0,0,0,0,0,0,0,
3.258646, 17:31:21.501,0,0,0,0,0,0,0,0,0,
3.284428, 17:31:21.527,0,0,0,0,0,0,0,0,0,
3.312772, 17:31:21.556,0,0,0,0,0,0,0,0,0,
3.344514, 17:31:21.589,0,0,0,0,0,0,0,0,0,
3.454679, 17:31:21.700,0,0,0,0,0,0,0,0,0,
3.485143, 17:31:21.728,0,0,0,0,0,0,0,0,0,
3.514459, 17:31:21.757,0,0,0,0,0,0,0,0,0,
3.540215, 17:31:21.782,0,0,0,0,0,0,0,0,0,
3.565472, 17:31:21.807,0,0,0,0,0,0,0,0,0,
3.592413, 17:31:21.834,0,0,0,0,0,0,0,0,0,
3.61875, 17:31:21.861,0,0,0,0,0,0,0,0,0,
3.646565, 17:31:21.890,0,0,0,0,0,0,0,0,0,
3.679555, 17:31:21.922,0,0,0,0,0,0,0,0,0,
3.706468, 17:31:21.950,0,0,0,0,0,0,0,0,0,
3.735129, 17:31:21.977,0,0,0,0,0,0,0,0,0,
3.763421, 17:31:22.005,0,0,0,0,0,0,0,0,0,
3.788866, 17:31:22.031,0,0,0,0,0,0,0,0,0,
3.877059, 17:31:22.122,0,0,0,0,0,0,0,0,0,
3.907071, 17:31:22.149,0,0,0,0,0,0,0,0,0,
3.933729, 17:31:22.176,0,0,0,0,0,0,0,0,0,
3.960397, 17:31:22.204,0,0,0,0,0,0,0,0,0,
3.988234, 17:31:22.230,0,0,0,0,0,0,0,0,0,
4.014642, 17:31:22.257,0,0,0,0,0,0,0,0,0,
4.040059, 17:31:22.283,0,0,0,0,0,0,0,0,0,
4.067478, 17:31:22.310,0,0,0,0,0,0,0,0,0,
4.095408, 17:31:22.338,0,0,0,0,0,0,0,0,0,
4.123375, 17:31:22.368,0,0,0,0,0,0,0,0,0,
4.154521, 17:31:22.397,0,0,0,0,0,0,0,0,0,
4.180184, 17:31:22.423,0,0,0,0,0,0,0,0,0,
4.207438, 17:31:22.448,0,0,0,0,0,0,0,0,0,
4.233403, 17:31:22.475,0,0,0,0,0,0,0,0,0,
4.258652, 17:31:22.501,0,0,0,0,0,0,0,0,0,
4.290948, 17:31:22.534,0,0,0,0,0,0,0,0,0,
4.326758, 17:31:22.570,0,0,0,0,0,0,0,0,0,
4.353697, 17:31:22.596,0,0,0,0,0,0,0,0,0,
4.381619, 17:31:22.625,0,0,0,0,0,0,0,0,0,
4.409374, 17:31:22.652,0,0,0,0,0,0,0,0,0,
4.435931, 17:31:22.678,0,0,0,0,0,0,0,0,0,
4.462876, 17:31:22.708,0,0,0,0,0,0,0,0,0,
4.496671, 17:31:22.740,0,0,0,0,0,0,0,0,0,
4.527941, 17:31:22.771,0,0,0,0,0,0,0,0,0,
4.581219, 17:31:22.825,0,0,0,0,0,0,0,0,0,
4.613397, 17:31:22.856,0,0,0,0,0,0,0,0,0,
4.642001, 17:31:22.885,0,0,0,0,0,0,0,0,0,
4.670451, 17:31:22.912,0,0,0,0,0,0,0,0,0,
4.695101, 17:31:22.937,0,0,0,0,0,0,0,0,0,
4.721024, 17:31:22.964,0,0,0,0,0,0,0,0,0,
4.751649, 17:31:22.994,0,0,0,0,0,0,0,0,0,
4.780532, 17:31:23.023,0,0,0,0,0,0,0,0,0,
4.836135, 17:31:23.080,0,0,0,0,0,0,0,0,0,
4.864535, 17:31:23.108,0,0,0,0,0,0,0,0,0,
4.893592, 17:31:23.136,0,0,0,0,0,0,0,0,0,
4.91984, 17:31:23.162,0,0,0,0,0,0,0,0,0,
4.946147, 17:31:23.189,0,0,0,0,0,0,0,0,0,
4.973739, 17:31:23.216,0,0,0,0,0,0,0,0,0,
4.99976, 17:31:23.241,0,0,0,0,0,0,0,0,0,
5.026127, 17:31:23.269,0,0,0,0,0,0,0,0,0,
5.054744, 17:31:23.297,0,0,0,0,0,0,0,0,0,
5.081694, 17:31:23.325,0,0,0,0,0,0,0,0,0,
5.107822, 17:31:23.350,0,0,0,0,0,0,0,0,0,
5.134108, 17:31:23.376,0,0,0,0,0,0,0,0,0,
5.158875, 17:31:23.401,0,0,0,0,0,0,0,0,0,
5.184383, 17:31:23.427,0,0,0,0,0,0,0,0,0,
5.209948, 17:31:23.452,0,0,0,0,0,0,0,0,0,
5.235346, 17:31:23.477,0,0,0,0,0,0,0,0,0,
5.261027, 17:31:23.503,0,0,0,0,0,0,0,0,0,
5.287998, 17:31:23.529,0,0,0,0,0,0,0,0,0,
5.314588, 17:31:23.556,0,0,0,0,0,0,0,0,0,
5.340191, 17:31:23.583,0,0,0,0,0,0,0,0,0,
5.36731, 17:31:23.609,0,0,0,0,0,0,0,0,0,
5.393967, 17:31:23.636,0,0,0,0,0,0,0,0,0,
5.419497, 17:31:23.662,0,0,0,0,0,0,0,0,0,
5.445829, 17:31:23.689,0,0,0,0,0,0,0,0,0,
5.472445, 17:31:23.715,0,0,0,0,0,0,0,0,0,
5.49814, 17:31:23.740,0,0,0,0,0,0,0,0,0,
5.523752, 17:31:23.766,0,0,0,0,0,0,0,0,0,
5.550126, 17:31:23.792,0,0,0,0,0,0,0,0,0,
5.57562, 17:31:23.818,0,0,0,0,0,0,0,0,0,
5.601005, 17:31:23.845,0,0,0,0,0,0,0,0,0,
5.629889, 17:31:23.871,0,0,0,0,0,0,0,0,0,
5.657028, 17:31:23.900,0,0,0,0,0,0,0,0,0,
5.685655, 17:31:23.928,0,0,0,0,0,0,0,0,0,
5.715736, 17:31:23.957,0,0,0,0,0,0,0,0,0,
5.743285, 17:31:23.987,0,0,0,0,0,0,0,0,0,
5.779212, 17:31:24.022,0,0,0,0,0,0,0,0,0,
5.807651, 17:31:24.050,0,0,0,0,0,0,0,0,0,
5.836782, 17:31:24.079,0,0,0,0,0,0,0,0,0,
5.864106, 17:31:24.107,0,0,0,0,0,0,0,0,0,
5.891185, 17:31:24.133,0,0,0,0,0,0,0,0,0,
5.917337, 17:31:24.160,0,0,0,0,0,0,0,0,0,
5.944422, 17:31:24.188,0,0,0,0,0,0,0,0,0,
5.970966, 17:31:24.212,0,0,0,0,0,0,0,0,0,
5.995988, 17:31:24.237,0,0,0,0,0,0,0,0,0,
6.022276, 17:31:24.265,0,0,0,0,0,0,0,0,0,
6.048736, 17:31:24.290,0,0,0,0,0,0,0,0,0,
6.0745, 17:31:24.316,0,0,0,0,0,0,0,0,0,
6.10109, 17:31:24.344,0,0,0,0,0,0,0,0,0,
6.128668, 17:31:24.371,0,0,0,0,0,0,0,0,0,
6.15616, 17:31:24.399,0,0,0,0,0,0,0,0,0,
6.185251, 17:31:24.428,0,0,0,0,0,0,0,0,0,
6.212941, 17:31:24.454,0,0,0,0,0,0,0,0,0,
6.238557, 17:31:24.480,0,0,0,0,0,0,0,0,0,
6.264962, 17:31:24.507,0,0,0,0,0,0,0,0,0,
6.291402, 17:31:24.533,0,0,0,0,0,0,0,0,0,
6.316898, 17:31:24.559,0,0,0,0,0,0,0,0,0,
6.344049, 17:31:24.587,0,0,0,0,0,0,0,0,0,
6.372334, 17:31:24.614,0,0,0,0,0,0,0,0,0,
6.399533, 17:31:24.642,0,0,0,0,0,0,0,0,0,
6.425269, 17:31:24.668,0,0,0,0,0,0,0,0,0,
6.453197, 17:31:24.696,0,0,0,0,0,0,0,0,0,
6.478285, 17:31:24.720,0,0,0,0,0,0,0,0,0,
6.503895, 17:31:24.747,0,0,0,0,0,0,0,0,0,
6.531286, 17:31:24.773,0,0,0,0,0,0,0,0,0,
6.558345, 17:31:24.801,0,0,0,0,0,0,0,0,0,
6.586128, 17:31:24.828,0,0,0,0,0,0,0,0,0,
6.615129, 17:31:24.857,0,0,0,0,0,0,0,0,0,
6.643149, 17:31:24.886,0,0,0,0,0,0,0,0,0,
6.674201, 17:31:24.916,0,0,0,0,0,0,0,0,0,
6.700613, 17:31:24.945,0,0,0,0,0,0,0,0,0,
6.728065, 17:31:24.970,0,0,0,0,0,0,0,0,0,
6.76025, 17:31:25.003,0,0,0,0,0,0,0,0,0,
6.786469, 17:31:25.029,0,0,0,0,0,0,0,0,0,
6.812979, 17:31:25.055,0,0,0,0,0,0,0,0,0,
6.838894, 17:31:25.081,0,0,0,0,0,0,0,0,0,
6.870127, 17:31:25.114,0,0,0,0,0,0,0,0,0,
6.900526, 17:31:25.144,0,0,0,0,0,0,0,0,0,
6.938201, 17:31:25.181,0,0,0,0,0,0,0,0,0,
6.967015, 17:31:25.210,0,0,0,0,0,0,0,0,0,
6.995541, 17:31:25.237,0,0,0,0,0,0,0,0,0,
7.022062, 17:31:25.266,0,0,0,0,0,0,0,0,0,
7.048391, 17:31:25.291,0,0,0,0,0,0,0,0,0,
7.074003, 17:31:25.317,0,0,0,0,0,0,0,0,0,
7.099362, 17:31:25.341,0,0,0,0,0,0,0,0,0,
7.124472, 17:31:25.366,0,0,0,0,0,0,0,0,0,
7.151312, 17:31:25.393,0,0,0,0,0,0,0,0,0,
7.177136, 17:31:25.419,0,0,0,0,0,0,0,0,0,
7.203639, 17:31:25.446,0,0,0,0,0,0,0,0,0,
7.230628, 17:31:25.472,0,0,0,0,0,0,0,0,0,
7.266231, 17:31:25.509,0,0,0,0,0,0,0,0,0,
7.293793, 17:31:25.536,0,0,0,0,0,0,0,0,0,
7.320558, 17:31:25.563,0,0,0,0,0,0,0,0,0,
7.347066, 17:31:25.590,0,0,0,0,0,0,0,0,0,
7.373688, 17:31:25.615,0,0,0,0,0,0,0,0,0,
7.399876, 17:31:25.642,0,0,0,0,0,0,0,0,0,
7.426132, 17:31:25.669,0,0,0,0,0,0,0,0,0,
7.453477, 17:31:25.696,0,0,0,0,0,0,0,0,0,
7.479442, 17:31:25.722,0,0,0,0,0,0,0,0,0,
7.505419, 17:31:25.747,0,0,0,0,0,0,0,0,0,
7.532612, 17:31:25.774,0,0,0,0,0,0,0,0,0,
7.559782, 17:31:25.801,0,0,0,0,0,0,0,0,0,
7.586219, 17:31:25.829,0,0,0,0,0,0,0,0,0,
7.614353, 17:31:25.856,0,0,0,0,0,0,0,0,0,
7.640238, 17:31:25.882,0,0,0,0,0,0,0,0,0,
7.668763, 17:31:25.911,0,0,0,0,0,0,0,0,0,
7.696473, 17:31:25.938,0,0,0,0,0,0,0,0,0,
7.724436, 17:31:25.967,0,0,0,0,0,0,0,0,0,
7.750353, 17:31:25.993,0,0,0,0,0,0,0,0,0,
7.777242, 17:31:26.020,0,0,0,0,0,0,0,0,0,
7.807227, 17:31:26.050,0,0,0,0,0,0,0,0,0,
7.838058, 17:31:26.080,0,0,0,0,0,0,0,0,0,
7.867066, 17:31:26.110,0,0,0,0,0,0,0,0,0,
7.897006, 17:31:26.138,0,0,0,0,0,0,0,0,0,
7.925947, 17:31:26.168,0,0,0,0,0,0,0,0,0,
7.955518, 17:31:26.197,0,0,0,0,0,0,0,0,0,
7.986146, 17:31:26.230,0,0,0,0,0,0,0,0,0,
8.021357, 17:31:26.264,0,0,0,0,0,0,0,0,0,
8.090181, 17:31:26.334,0,0,0,0,0,0,0,0,0,
8.132485, 17:31:26.376,0,0,0,0,0,0,0,0,0,
8.16699, 17:31:26.409,0,0,0,0,0,0,0,0,0,
8.198955, 17:31:26.440,0,0,0,0,0,0,0,0,0,
8.230807, 17:31:26.473,0,0,0,0,0,0,0,0,0,
8.262536, 17:31:26.505,0,0,0,0,0,0,0,0,0,
8.29535, 17:31:26.537,0,0,0,0,0,0,0,0,0,
8.324227, 17:31:26.566,0,0,0,0,0,0,0,0,0,
8.353894, 17:31:26.596,0,0,0,0,0,0,0,0,0,
8.38388, 17:31:26.626,0,0,0,0,0,0,0,0,0,
8.413464, 17:31:26.655,0,0,0,0,0,0,0,0,0,
8.441637, 17:31:26.684,0,0,0,0,0,0,0,0,0,
8.470715, 17:31:26.713,0,0,0,0,0,0,0,0,0,
8.498438, 17:31:26.741,0,0,0,0,0,0,0,0,0,
8.526153, 17:31:26.769,0,0,0,0,0,0,0,0,0,
8.55539, 17:31:26.797,0,0,0,0,0,0,0,0,0,
8.583683, 17:31:26.827,0,0,0,0,0,0,0,0,0,
8.616044, 17:31:26.857,0,0,0,0,0,0,0,0,0,
8.645164, 17:31:26.887,0,0,0,0,0,0,0,0,0,
8.676208, 17:31:26.918,0,0,0,0,0,0,0,0,0,
8.705698, 17:31:26.948,0,0,0,0,0,0,0,0,0,
8.733457, 17:31:26.975,0,0,0,0,0,0,0,0,0,
8.760634, 17:31:27.003,0,0,0,0,0,0,0,0,0,
8.789616, 17:31:27.031,0,0,0,0,0,0,0,0,0,
8.816695, 17:31:27.059,0,0,0,0,0,0,0,0,0,
8.842662, 17:31:27.085,0,0,0,0,0,0,0,0,0,
8.87177, 17:31:27.114,0,0,0,0,0,0,0,0,0,
8.897605, 17:31:27.139,0,0,0,0,0,0,0,0,0,
8.924391, 17:31:27.167,0,0,0,0,0,0,0,0,0,
8.954077, 17:31:27.196,0,0,0,0,0,0,0,0,0,
8.981698, 17:31:27.225,0,0,0,0,0,0,0,0,0,
9.011308, 17:31:27.253,0,0,0,0,0,0,0,0,0,
9.039191, 17:31:27.281,0,0,0,0,0,0,0,0,0,
9.067326, 17:31:27.310,0,0,0,0,0,0,0,0,0,
9.099987, 17:31:27.343,0,0,0,0,0,0,0,0,0,
9.128001, 17:31:27.371,0,0,0,0,0,0,0,0,0,
9.162708, 17:31:27.406,0,0,0,0,0,0,0,0,0,
9.196399, 17:31:27.439,0,0,0,0,0,0,0,0,0,
9.235703, 17:31:27.481,0,0,0,0,0,0,0,0,0,
9.27669, 17:31:27.520,0,0,0,0,0,0,0,0,0,
9.313927, 17:31:27.557,0,0,0,0,0,0,0,0,0,
9.352563, 17:31:27.596,0,0,0,0,0,0,0,0,0,
9.39149, 17:31:27.634,0,0,0,0,0,0,0,0,0,
9.425629, 17:31:27.669,0,0,0,0,0,0,0,0,0,
9.456712, 17:31:27.699,0,0,0,0,0,0,0,0,0,
9.485588, 17:31:27.729,0,0,0,0,0,0,0,0,0,
9.519212, 17:31:27.762,0,0,0,0,0,0,0,0,0,
9.549015, 17:31:27.792,0,0,0,0,0,0,0,0,0,
9.580035, 17:31:27.824,0,0,0,0,0,0,0,0,0,
9.616565, 17:31:27.859,0,0,0,0,0,0,0,0,0,
9.645402, 17:31:27.887,0,0,0,0,0,0,0,0,0,
9.676562, 17:31:27.918,0,0,0,0,0,0,0,0,0,
9.705449, 17:31:27.947,0,0,0,0,0,0,0,0,0,
9.737102, 17:31:27.979,0,0,0,0,0,0,0,0,0,
9.768928, 17:31:28.011,0,0,0,0,0,0,0,0,0,
9.801592, 17:31:28.044,0,0,0,0,0,0,0,0,0,
9.834562, 17:31:28.076,0,0,0,0,0,0,0,0,0,
9.867697, 17:31:28.111,0,0,0,0,0,0,0,0,0,
9.901472, 17:31:28.145,0,0,0,0,0,0,0,0,0,
9.935206, 17:31:28.178,0,0,0,0,0,0,0,0,0,
9.966977, 17:31:28.210,0,0,0,0,0,0,0,0,0,
9.998686, 17:31:28.241,0,0,0,0,0,0,0,0,0,
10.03642, 17:31:28.279,0,0,0,0,0,0,0,0,0,
10.06902, 17:31:28.312,0,0,0,0,0,0,0,0,0,
10.10522, 17:31:28.348,0,0,0,0,0,0,0,0,0,
10.14001, 17:31:28.383,0,0,0,0,0,0,0,0,0,
10.17375, 17:31:28.416,0,0,0,0,0,0,0,0,0,
10.20418, 17:31:28.447,0,0,0,0,0,0,0,0,0,
10.23631, 17:31:28.478,0,0,0,0,0,0,0,0,0,
10.26681, 17:31:28.510,0,0,0,0,0,0,0,0,0,
10.30254, 17:31:28.547,0,0,0,0,0,0,0,0,0,
10.33832, 17:31:28.581,0,0,0,0,0,0,0,0,0,
10.37349, 17:31:28.618,0,0,0,0,0,0,0,0,0,
10.41989, 17:31:28.663,0,0,0,0,0,0,0,0,0,
10.45259, 17:31:28.695,0,0,0,0,0,0,0,0,0,
10.48564, 17:31:28.728,0,0,0,0,0,0,0,0,0,
10.51805, 17:31:28.760,0,0,0,0,0,0,0,0,0,
10.5597, 17:31:28.803,0,0,0,0,0,0,0,0,0,
10.59134, 17:31:28.833,0,0,0,0,0,0,0,0,0,
10.62519, 17:31:28.867,0,0,0,0,0,0,0,0,0,
10.65627, 17:31:28.899,0,0,0,0,0,0,0,0,0,
10.69013, 17:31:28.933,0,0,0,0,0,0,0,0,0,
10.72238, 17:31:28.965,0,0,0,0,0,0,0,0,0,
10.75582, 17:31:29.032,0,0,0,0,0,0,0,0,0,
10.8237, 17:31:29.070,0,0,0,0,0,0,0,0,0,
10.86111, 17:31:29.105,0,0,0,0,0,0,0,0,0,
10.895, 17:31:29.137,0,0,0,0,0,0,0,0,0,
10.92733, 17:31:29.170,0,0,0,0,0,0,0,0,0,
10.96313, 17:31:29.206,0,0,0,0,0,0,0,0,0,
11.00493, 17:31:29.248,0,0,0,0,0,0,0,0,0,
11.03763, 17:31:29.280,0,0,0,0,0,0,0,0,0,
11.06811, 17:31:29.311,0,0,0,0,0,0,0,0,0,
11.09711, 17:31:29.339,0,0,0,0,0,0,0,0,0,
11.1263, 17:31:29.370,0,0,0,0,0,0,0,0,0,
11.15676, 17:31:29.398,0,0,0,0,0,0,0,0,0,
11.18475, 17:31:29.428,0,0,0,0,0,0,0,0,0,
11.21451, 17:31:29.456,0,0,0,0,0,0,0,0,0,
11.2451, 17:31:29.487,0,0,0,0,0,0,0,0,0,
11.27433, 17:31:29.517,0,0,0,0,0,0,0,0,0,
11.30393, 17:31:29.547,0,0,0,0,0,0,0,0,0,
11.336, 17:31:29.578,0,0,0,0,0,0,0,0,0,
11.36514, 17:31:29.608,0,0,0,0,0,0,0,0,0,
11.39747, 17:31:29.640,0,0,0,0,0,0,0,0,0,
11.42862, 17:31:29.672,0,0,0,0,0,0,0,0,0,
11.45942, 17:31:29.701,0,0,0,0,0,0,0,0,0,
11.51556, 17:31:29.761,0,0,0,0,0,0,0,0,0,
11.55162, 17:31:29.797,0,0,0,0,0,0,0,0,0,
11.59339, 17:31:29.838,0,0,0,0,0,0,0,0,0,
11.62829, 17:31:29.871,0,0,0,0,0,0,0,0,0,
11.66338, 17:31:29.907,0,0,0,0,0,0,0,0,0,
11.69598, 17:31:29.938,0,0,0,0,0,0,0,0,0,
11.72539, 17:31:29.968,0,0,0,0,0,0,0,0,0,
11.76632, 17:31:30.010,0,0,0,0,0,0,0,0,0,
11.79638, 17:31:30.038,0,0,0,0,0,0,0,0,0,
11.82569, 17:31:30.069,0,0,0,0,0,0,0,0,0,
11.85672, 17:31:30.099,0,0,0,0,0,0,0,0,0,
11.89355, 17:31:30.138,0,0,0,0,0,0,0,0,0,
11.92532, 17:31:30.168,0,0,0,0,0,0,0,0,0,
11.95468, 17:31:30.197,0,0,0,0,0,0,0,0,0,
11.98421, 17:31:30.226,0,0,0,0,0,0,0,0,0,
12.02102, 17:31:30.264,0,0,0,0,0,0,0,0,0,
12.04972, 17:31:30.291,0,0,0,0,0,0,0,0,0,
12.07961, 17:31:30.321,0,0,0,0,0,0,0,0,0,
12.10767, 17:31:30.350,0,0,0,0,0,0,0,0,0,
12.13776, 17:31:30.379,0,0,0,0,0,0,0,0,0,
12.18656, 17:31:30.430,0,0,0,0,0,0,0,0,0,
12.21853, 17:31:30.461,0,0,0,0,0,0,0,0,0,
12.24896, 17:31:30.492,0,0,0,0,0,0,0,0,0,
12.2819, 17:31:30.525,0,0,0,0,0,0,0,0,0,
12.31912, 17:31:30.562,0,0,0,0,0,0,0,0,0,
12.36206, 17:31:30.606,0,0,0,0,0,0,0,0,0,
12.39425, 17:31:30.635,0,0,0,0,0,0,0,0,0,
12.42233, 17:31:30.665,0,0,0,0,0,0,0,0,0,
12.45257, 17:31:30.695,0,0,0,0,0,0,0,0,0,
12.48186, 17:31:30.725,0,0,0,0,0,0,0,0,0,
12.51087, 17:31:30.753,0,0,0,0,0,0,0,0,0,
12.53993, 17:31:30.783,0,0,0,0,0,0,0,0,0,
12.57018, 17:31:30.812,0,0,0,0,0,0,0,0,0,
12.59926, 17:31:30.841,0,0,0,0,0,0,0,0,0,
12.63187, 17:31:30.874,0,0,0,0,0,0,0,0,0,
12.66133, 17:31:30.905,0,0,0,0,0,0,0,0,0,
12.69866, 17:31:30.941,0,0,0,0,0,0,0,0,0,
12.73201, 17:31:30.976,0,0,0,0,0,0,0,0,0,
12.77639, 17:31:31.019,0,0,0,0,0,0,0,0,0,
12.80742, 17:31:31.051,0,0,0,0,0,0,0,0,0,
12.83896, 17:31:31.081,0,0,0,0,0,0,0,0,0,
12.88176, 17:31:31.126,0,0,0,0,0,0,0,0,0,
12.92319, 17:31:31.165,0,0,0,0,0,0,0,0,0,
12.95278, 17:31:31.195,0,0,0,0,0,0,0,0,0,
12.98561, 17:31:31.228,0,0,0,0,0,0,0,0,0,
13.01604, 17:31:31.258,0,0,0,0,0,0,0,0,0,
13.04717, 17:31:31.290,0,0,0,0,0,0,0,0,0,
13.07853, 17:31:31.320,0,0,0,0,0,0,0,0,0,
13.1082, 17:31:31.351,0,0,0,0,0,0,0,0,0,
13.13956, 17:31:31.381,0,0,0,0,0,0,0,0,0,
13.17009, 17:31:31.413,0,0,0,0,0,0,0,0,0,
13.202, 17:31:31.446,0,0,0,0,0,0,0,0,0,
13.23324, 17:31:31.476,0,0,0,0,0,0,0,0,0,
13.26336, 17:31:31.507,0,0,0,0,0,0,0,0,0,
13.29395, 17:31:31.535,0,0,0,0,0,0,0,0,0,
13.32345, 17:31:31.566,0,0,0,0,0,0,0,0,0,
13.35492, 17:31:31.597,0,0,0,0,0,0,0,0,0,
13.38514, 17:31:31.628,0,0,0,0,0,0,0,0,0,
13.41544, 17:31:31.657,0,0,0,0,0,0,0,0,0,
13.44483, 17:31:31.687,0,0,0,0,0,0,0,0,0,
13.4752, 17:31:31.718,0,0,0,0,0,0,0,0,0,
13.50516, 17:31:31.748,0,0,0,0,0,0,0,0,0,
13.53513, 17:31:31.777,0,0,0,0,0,0,0,0,0,
13.56484, 17:31:31.807,0,0,0,0,0,0,0,0,0,
13.59448, 17:31:31.837,0,0,0,0,0,0,0,0,0,
13.62565, 17:31:31.868,0,0,0,0,0,0,0,0,0,
13.66002, 17:31:31.903,0,0,0,0,0,0,0,0,0,
13.69169, 17:31:31.933,0,0,0,0,0,0,0,0,0,
13.72114, 17:31:31.964,0,0,0,0,0,0,0,0,0,
13.75162, 17:31:31.993,0,0,0,0,0,0,0,0,0,
13.78017, 17:31:32.023,0,0,0,0,0,0,0,0,0,
13.81216, 17:31:32.053,0,0,0,0,0,0,0,0,0,
13.84254, 17:31:32.086,0,0,0,0,0,0,0,0,0,
13.87811, 17:31:32.121,0,0,0,0,0,0,0,0,0,
13.91461, 17:31:32.160,0,0,0,0,0,0,0,0,0,
13.95247, 17:31:32.195,0,0,0,0,0,0,0,0,0,
13.98425, 17:31:32.227,0,0,0,0,0,0,0,0,0,
14.01565, 17:31:32.257,0,0,0,0,0,0,0,0,0,
14.04484, 17:31:32.287,0,0,0,0,0,0,0,0,0,
14.07518, 17:31:32.317,0,0,0,0,0,0,0,0,0,
14.1086, 17:31:32.351,0,0,0,0,0,0,0,0,0,
14.13978, 17:31:32.382,0,0,0,0,0,0,0,0,0,
14.16917, 17:31:32.411,0,0,0,0,0,0,0,0,0,
14.19958, 17:31:32.441,0,0,0,0,0,0,0,0,0,
14.22985, 17:31:32.473,0,0,0,0,0,0,0,0,0,
14.25961, 17:31:32.501,0,0,0,0,0,0,0,0,0,
14.28923, 17:31:32.533,0,0,0,0,0,0,0,0,0,
14.3194, 17:31:32.561,0,0,0,0,0,0,0,0,0,
14.34873, 17:31:32.593,0,0,0,0,0,0,0,0,0,
14.37971, 17:31:32.622,0,0,0,0,0,0,0,0,0,
14.41196, 17:31:32.655,0,0,0,0,0,0,0,0,0,
14.44264, 17:31:32.685,0,0,0,0,0,0,0,0,0,
14.47343, 17:31:32.716,0,0,0,0,0,0,0,0,0,
14.50448, 17:31:32.748,0,0,0,0,0,0,0,0,0,
14.53428, 17:31:32.777,0,0,0,0,0,0,0,0,0,
14.5634, 17:31:32.807,0,0,0,0,0,0,0,0,0,
14.59466, 17:31:32.836,0,0,0,0,0,0,0,0,0,
14.62401, 17:31:32.867,0,0,0,0,0,0,0,0,0,
14.65447, 17:31:32.896,0,0,0,0,0,0,0,0,0,
14.68569, 17:31:32.929,0,0,0,0,0,0,0,0,0,
14.71582, 17:31:32.957,0,0,0,0,0,0,0,0,0,
14.74464, 17:31:32.987,0,0,0,0,0,0,0,0,0,
14.77419, 17:31:33.016,0,0,0,0,0,0,0,0,0,
14.80417, 17:31:33.047,0,0,0,0,0,0,0,0,0,
14.83385, 17:31:33.077,0,0,0,0,0,0,0,0,0,
14.86502, 17:31:33.108,0,0,0,0,0,0,0,0,0,
14.8947, 17:31:33.138,0,0,0,0,0,0,0,0,0,
14.92298, 17:31:33.166,0,0,0,0,0,0,0,0,0,
14.95168, 17:31:33.193,0,0,0,0,0,0,0,0,0,
14.98014, 17:31:33.222,0,0,0,0,0,0,0,0,0,
15.00978, 17:31:33.252,0,0,0,0,0,0,0,0,0,
15.04376, 17:31:33.287,0,0,0,0,0,0,0,0,0,
15.07839, 17:31:33.321,0,0,0,0,0,0,0,0,0,
15.11996, 17:31:33.363,0,0,0,0,0,0,0,0,0,
15.15102, 17:31:33.394,0,0,0,0,0,0,0,0,0,
15.18171, 17:31:33.424,0,0,0,0,0,0,0,0,0,
15.21001, 17:31:33.452,0,0,0,0,0,0,0,0,0,
15.23902, 17:31:33.480,0,0,0,0,0,0,0,0,0,
15.267, 17:31:33.511,0,0,0,0,0,0,0,0,0,
15.29645, 17:31:33.538,0,0,0,0,0,0,0,0,0,
15.32485, 17:31:33.567,0,0,0,0,0,0,0,0,0,
15.35463, 17:31:33.596,0,0,0,0,0,0,0,0,0,
15.38316, 17:31:33.625,0,0,0,0,0,0,0,0,0,
15.41305, 17:31:33.654,0,0,0,0,0,0,0,0,0,
15.44182, 17:31:33.684,0,0,0,0,0,0,0,0,0,
15.47201, 17:31:33.714,0,0,0,0,0,0,0,0,0,
15.50065, 17:31:33.744,0,0,0,0,0,0,0,0,0,
15.5305, 17:31:33.772,0,0,0,0,0,0,0,0,0,
15.55876, 17:31:33.800,0,0,0,0,0,0,0,0,0,
15.58628, 17:31:33.830,0,0,0,0,0,0,0,0,0,
15.61723, 17:31:33.859,0,0,0,0,0,0,0,0,0,
15.64639, 17:31:33.890,0,0,0,0,0,0,0,0,0,
15.67968, 17:31:33.922,0,0,0,0,0,0,0,0,0,
15.70795, 17:31:33.951,0,0,0,0,0,0,0,0,0,
15.73734, 17:31:33.979,0,0,0,0,0,0,0,0,0,
15.76596, 17:31:34.009,0,0,0,0,0,0,0,0,0,
15.79487, 17:31:34.037,0,0,0,0,0,0,0,0,0,
15.82492, 17:31:34.067,0,0,0,0,0,0,0,0,0,
15.85437, 17:31:34.097,0,0,0,0,0,0,0,0,0,
15.88618, 17:31:34.129,0,0,0,0,0,0,0,0,0,
15.91714, 17:31:34.160,0,0,0,0,0,0,0,0,0,
15.9467, 17:31:34.190,0,0,0,0,0,0,0,0,0,
15.97738, 17:31:34.219,0,0,0,0,0,0,0,0,0,
16.00569, 17:31:34.249,0,0,0,0,0,0,0,0,0,
16.03479, 17:31:34.276,0,0,0,0,0,0,0,0,0,
16.0639, 17:31:34.308,0,0,0,0,0,0,0,0,0,
16.09459, 17:31:34.337,0,0,0,0,0,0,0,0,0,
16.12439, 17:31:34.367,0,0,0,0,0,0,0,0,0,
16.15366, 17:31:34.395,0,0,0,0,0,0,0,0,0,
16.18264, 17:31:34.426,0,0,0,0,0,0,0,0,0,
16.21842, 17:31:34.460,0,0,0,0,0,0,0,0,0,
16.25142, 17:31:34.495,0,0,0,0,0,0,0,0,0,
16.28701, 17:31:34.530,0,0,0,0,0,0,0,0,0,
16.31768, 17:31:34.560,0,0,0,0,0,0,0,0,0,
16.34704, 17:31:34.589,0,0,0,0,0,0,0,0,0,
16.37585, 17:31:34.618,0,0,0,0,0,0,0,0,0,
16.40485, 17:31:34.647,0,0,0,0,0,0,0,0,0,
16.43418, 17:31:34.676,0,0,0,0,0,0,0,0,0,
16.46169, 17:31:34.705,0,0,0,0,0,0,0,0,0,
16.49481, 17:31:34.738,0,0,0,0,0,0,0,0,0,
16.5267, 17:31:34.770,0,0,0,0,0,0,0,0,0,
16.55726, 17:31:34.799,0,0,0,0,0,0,0,0,0,
16.59502, 17:31:34.837,0,0,0,0,0,0,0,0,0,
16.63456, 17:31:34.877,0,0,0,0,0,0,0,0,0,
16.66543, 17:31:34.908,0,0,0,0,0,0,0,0,0,
16.70456, 17:31:34.948,0,0,0,0,0,0,0,0,0,
16.73345, 17:31:34.975,0,0,0,0,0,0,0,0,0,
16.76098, 17:31:35.004,0,0,0,0,0,0,0,0,0,
16.79357, 17:31:35.036,0,0,0,0,0,0,0,0,0,
16.82527, 17:31:35.069,0,0,0,0,0,0,0,0,0,
16.85518, 17:31:35.098,0,0,0,0,0,0,0,0,0,
16.88361, 17:31:35.127,0,0,0,0,0,0,0,0,0,
16.91442, 17:31:35.156,0,0,0,0,0,0,0,0,0,
16.9431, 17:31:35.186,0,0,0,0,0,0,0,0,0,
16.97554, 17:31:35.217,0,0,0,0,0,0,0,0,0,
17.00546, 17:31:35.249,0,0,0,0,0,0,0,0,0,
17.03559, 17:31:35.277,0,0,0,0,0,0,0,0,0,
17.06436, 17:31:35.307,0,0,0,0,0,0,0,0,0,
17.09487, 17:31:35.337,0,0,0,0,0,0,0,0,0,
17.12514, 17:31:35.367,0,0,0,0,0,0,0,0,0,
17.15633, 17:31:35.398,0,0,0,0,0,0,0,0,0,
17.18523, 17:31:35.429,0,0,0,0,0,0,0,0,0,
17.21755, 17:31:35.460,0,0,0,0,0,0,0,0,0,
17.24943, 17:31:35.492,0,0,0,0,0,0,0,0,0,
17.28112, 17:31:35.523,0,0,0,0,0,0,0,0,0,
17.31202, 17:31:35.555,0,0,0,0,0,0,0,0,0,
17.34687, 17:31:35.590,0,0,0,0,0,0,0,0,0,
17.38248, 17:31:35.626,0,0,0,0,0,0,0,0,0,
17.41842, 17:31:35.661,0,0,0,0,0,0,0,0,0,
17.49603, 17:31:35.741,0,0,0,0,0,0,0,0,0,
17.53081, 17:31:35.774,0,0,0,0,0,0,0,0,0,
17.58076, 17:31:35.824,0,0,0,0,0,0,0,0,0,
17.62241, 17:31:35.865,0,0,0,0,0,0,0,0,0,
17.65853, 17:31:35.901,0,0,0,0,0,0,0,0,0,
17.69008, 17:31:35.932,0,0,0,0,0,0,0,0,0,
17.71936, 17:31:35.962,0,0,0,0,0,0,0,0,0,
17.74937, 17:31:35.992,0,0,0,0,0,0,0,0,0,
17.7792, 17:31:36.022,0,0,0,0,0,0,0,0,0,
17.80809, 17:31:36.051,0,0,0,0,0,0,0,0,0,
17.83916, 17:31:36.080,0,0,0,0,0,0,0,0,0,
17.86933, 17:31:36.112,0,0,0,0,0,0,0,0,0,
17.90018, 17:31:36.142,0,0,0,0,0,0,0,0,0,
17.93097, 17:31:36.173,0,0,0,0,0,0,0,0,0,
17.95966, 17:31:36.201,0,0,0,0,0,0,0,0,0,
17.98921, 17:31:36.232,0,0,0,0,0,0,0,0,0,
18.0188, 17:31:36.261,0,0,0,0,0,0,0,0,0,
18.04789, 17:31:36.290,0,0,0,0,0,0,0,0,0,
18.0829, 17:31:36.326,0,0,0,0,0,0,0,0,0,
18.11396, 17:31:36.356,0,0,0,0,0,0,0,0,0,
18.14295, 17:31:36.387,0,0,0,0,0,0,0,0,0,
18.17337, 17:31:36.415,0,0,0,0,0,0,0,0,0,
18.20256, 17:31:36.445,0,0,0,0,0,0,0,0,0,
18.23254, 17:31:36.474,0,0,0,0,0,0,0,0,0,
18.26196, 17:31:36.504,0,0,0,0,0,0,0,0,0,
18.29266, 17:31:36.534,0,0,0,0,0,0,0,0,0,
18.32268, 17:31:36.565,0,0,0,0,0,0,0,0,0,
18.35275, 17:31:36.595,0,0,0,0,0,0,0,0,0,
18.38219, 17:31:36.625,0,0,0,0,0,0,0,0,0,
18.41249, 17:31:36.654,0,0,0,0,0,0,0,0,0,
18.44088, 17:31:36.684,0,0,0,0,0,0,0,0,0,
18.47149, 17:31:36.714,0,0,0,0,0,0,0,0,0,
18.50166, 17:31:36.745,0,0,0,0,0,0,0,0,0,
18.53343, 17:31:36.776,0,0,0,0,0,0,0,0,0,
18.56676, 17:31:36.810,0,0,0,0,0,0,0,0,0,
18.60056, 17:31:36.844,0,0,0,0,0,0,0,0,0,
18.64747, 17:31:36.890,0,0,0,0,0,0,0,0,0,
18.68269, 17:31:36.925,0,0,0,0,0,0,0,0,0,
18.71383, 17:31:36.956,0,0,0,0,0,0,0,0,0,
18.74514, 17:31:36.987,0,0,0,0,0,0,0,0,0,
18.7744, 17:31:37.016,0,0,0,0,0,0,0,0,0,
18.81534, 17:31:37.058,0,0,0,0,0,0,0,0,0,
18.86871, 17:31:37.114,0,0,0,0,0,0,0,0,0,
18.9007, 17:31:37.144,0,0,0,0,0,0,0,0,0,
18.93086, 17:31:37.173,0,0,0,0,0,0,0,0,0,
18.96118, 17:31:37.204,0,0,0,0,0,0,0,0,0,
18.9948, 17:31:37.238,0,0,0,0,0,0,0,0,0,
19.02558, 17:31:37.269,0,0,0,0,0,0,0,0,0,
19.05727, 17:31:37.300,0,0,0,0,0,0,0,0,0,
19.08976, 17:31:37.334,0,0,0,0,0,0,0,0,0,
19.12154, 17:31:37.364,0,0,0,0,0,0,0,0,0,
19.15511, 17:31:37.398,0,0,0,0,0,0,0,0,0,
19.18731, 17:31:37.431,0,0,0,0,0,0,0,0,0,
19.21878, 17:31:37.460,0,0,0,0,0,0,0,0,0,
19.25056, 17:31:37.494,0,0,0,0,0,0,0,0,0,
19.2854, 17:31:37.528,0,0,0,0,0,0,0,0,0,
19.31524, 17:31:37.557,0,0,0,0,0,0,0,0,0,
19.34389, 17:31:37.586,0,0,0,0,0,0,0,0,0,
19.37384, 17:31:37.617,0,0,0,0,0,0,0,0,0,
19.40352, 17:31:37.647,0,0,0,0,0,0,0,0,0,
19.43909, 17:31:37.681,0,0,0,0,0,0,0,0,0,
19.46798, 17:31:37.712,0,0,0,0,0,0,0,0,0,
19.50618, 17:31:37.749,0,0,0,0,0,0,0,0,0,
19.53571, 17:31:37.776,0,0,0,0,0,0,0,0,0,
19.57266, 17:31:37.816,0,0,0,0,0,0,0,0,0,
19.6048, 17:31:37.848,0,0,0,0,0,0,0,0,0,
19.63894, 17:31:37.881,0,0,0,0,0,0,0,0,0,
19.66949, 17:31:37.913,0,0,0,0,0,0,0,0,0,
19.7057, 17:31:37.949,0,0,0,0,0,0,0,0,0,
19.73932, 17:31:37.982,0,0,0,0,0,0,0,0,0,
19.78978, 17:31:38.034,0,0,0,0,0,0,0,0,0,
19.82202, 17:31:38.066,0,0,0,0,0,0,0,0,0,
19.85409, 17:31:38.096,0,0,0,0,0,0,0,0,0,
19.88523, 17:31:38.127,0,0,0,0,0,0,0,0,0,
19.91392, 17:31:38.156,0,0,0,0,0,0,0,0,0,
19.94259, 17:31:38.185,0,0,0,0,0,0,0,0,0,
19.97275, 17:31:38.214,0,0,0,0,0,0,0,0,0,
20.00518, 17:31:38.248,0,0,0,0,0,0,0,0,0,
20.03885, 17:31:38.281,0,0,0,0,0,0,0,0,0,
20.0712, 17:31:38.315,0,0,0,0,0,0,0,0,0,
20.10653, 17:31:38.350,0,0,0,0,0,0,0,0,0,
20.13848, 17:31:38.380,0,0,0,0,0,0,0,0,0,
20.17276, 17:31:38.416,0,0,0,0,0,0,0,0,0,
20.20248, 17:31:38.445,0,0,0,0,0,0,0,0,0,
20.23873, 17:31:38.482,0,0,0,0,0,0,0,0,0,
20.27064, 17:31:38.515,0,0,0,0,0,0,0,0,0,
20.30639, 17:31:38.551,0,0,0,0,0,0,0,0,0,
20.34093, 17:31:38.586,0,0,0,0,0,0,0,0,0,
20.39602, 17:31:38.638,0,0,0,0,0,0,0,0,0,
20.42689, 17:31:38.670,0,0,0,0,0,0,0,0,0,
20.50243, 17:31:38.748,0,0,0,0,0,0,0,0,0,
20.53925, 17:31:38.782,0,0,0,0,0,0,0,0,0,
20.57312, 17:31:38.816,0,0,0,0,0,0,0,0,0,
20.60618, 17:31:38.849,0,0,0,0,0,0,0,0,0,
20.6431, 17:31:38.886,0,0,0,0,0,0,0,0,0,
20.68779, 17:31:38.931,0,0,0,0,0,0,0,0,0,
20.71996, 17:31:38.962,0,0,0,0,0,0,0,0,0,
20.78777, 17:31:39.034,0,0,0,0,0,0,0,0,0,
20.82178, 17:31:39.065,0,0,0,0,0,0,0,0,0,
20.85403, 17:31:39.098,0,0,0,0,0,0,0,0,0,
20.898, 17:31:39.142,0,0,0,0,0,0,0,0,0,
20.95679, 17:31:39.200,0,0,0,0,0,0,0,0,0,
20.99988, 17:31:39.242,0,0,0,0,0,0,0,0,0,
21.03981, 17:31:39.282,0,0,0,0,0,0,0,0,0,
21.08064, 17:31:39.324,0,0,0,0,0,0,0,0,0,
21.13774, 17:31:39.381,0,0,0,0,0,0,0,0,0,
21.18503, 17:31:39.429,0,0,0,0,0,0,0,0,0,
21.22701, 17:31:39.470,0,0,0,0,0,0,0,0,0,
21.26976, 17:31:39.512,0,0,0,0,0,0,0,0,0,
21.31198, 17:31:39.554,0,0,0,0,0,0,0,0,0,
21.35279, 17:31:39.595,0,0,0,0,0,0,0,0,0,
21.39473, 17:31:39.637,0,0,0,0,0,0,0,0,0,
21.43555, 17:31:39.678,0,0,0,0,0,0,0,0,0,
21.47462, 17:31:39.718,0,0,0,0,0,0,0,0,0,
21.51729, 17:31:39.760,0,0,0,0,0,0,0,0,0,
21.55799, 17:31:39.801,0,0,0,0,0,0,0,0,0,
21.60397, 17:31:39.848,0,0,0,0,0,0,0,0,0,
21.64709, 17:31:39.890,0,0,0,0,0,0,0,0,0,
21.69008, 17:31:39.933,0,0,0,0,0,0,0,0,0,
21.74014, 17:31:39.984,0,0,0,0,0,0,0,0,0,
21.78956, 17:31:40.032,0,0,0,0,0,0,0,0,0,
21.84047, 17:31:40.085,0,0,0,0,0,0,0,0,0,
21.9097, 17:31:40.153,0,0,0,0,0,0,0,0,0,
21.96724, 17:31:40.212,0,0,0,0,0,0,0,0,0,
Elapsed_Time, System_Time, Euler_Roll, Euler_Pitch, Euler_Yaw, Gyro_Roll, Gyro_Pitch, Gyro_Yaw, Accel_x, Accel_y, Accel_z
0.02, 17:31:56.062,0,0,0,0,0,0,0,0,0,
0.04, 17:31:56.196,0,0,0,0,0,0,0,0,0,
0.3733333, 17:31:56.579,0,0,0,0,0,0,0,0,0,
0.4319679, 17:31:56.628,0,0,0,0,0,0,0,0,0,
0.4843733, 17:31:56.678,0,0,0,0,0,0,0,0,0,
0.5189174, 17:31:56.711,0,0,0,0,0,0,0,0,0,
0.578612, 17:31:56.772,0,0,0,0,0,0,0,0,0,
0.6218255, 17:31:56.815,0,0,0,0,0,0,0,0,0,
0.6614255, 17:31:56.855,0,0,0,0,0,0,0,0,0,
0.7010267, 17:31:56.894,0,0,0,0,0,0,0,0,0,
0.7336311, 17:31:56.925,0,0,0,0,0,0,0,0,0,
0.7685362, 17:31:56.960,0,0,0,0,0,0,0,0,0,
0.7982621, 17:31:56.989,0,0,0,0,0,0,0,0,0,
0.8280452, 17:31:57.020,0,0,0,0,0,0,0,0,0,
0.8565934, 17:31:57.048,0,0,0,0,0,0,0,0,0,
0.8882776, 17:31:57.080,0,0,0,0,0,0,0,0,0,
0.9171697, 17:31:57.108,0,0,0,0,0,0,0,0,0,
0.9520911, 17:31:57.145,0,0,0,0,0,0,0,0,0,
0.981914, 17:31:57.173,0,0,0,0,0,0,0,0,0,
1.012378, 17:31:57.203,0,0,0,0,0,0,0,0,0,
1.041389, 17:31:57.233,0,0,0,0,0,0,0,0,0,
1.070403, 17:31:57.262,0,0,0,0,0,0,0,0,0,
1.098003, 17:31:57.289,0,0,0,0,0,0,0,0,0,
1.134214, 17:31:57.328,0,0,0,0,0,0,0,0,0,
1.165472, 17:31:57.357,0,0,0,0,0,0,0,0,0,
1.195768, 17:31:57.387,0,0,0,0,0,0,0,0,0,
1.290755, 17:31:57.487,0,0,0,0,0,0,0,0,0,
1.32784, 17:31:57.523,0,0,0,0,0,0,0,0,0,
1.374888, 17:31:57.650,0,0,0,0,0,0,0,0,0,
1.493968, 17:31:57.690,0,0,0,0,0,0,0,0,0,
1.562934, 17:31:57.760,0,0,0,0,0,0,0,0,0,
1.752248, 17:31:57.952,0,0,0,0,0,0,0,0,0,
1.789741, 17:31:57.983,0,0,0,0,0,0,0,0,0,
1.903464, 17:31:58.100,0,0,0,0,0,0,0,0,0,
1.995151, 17:31:58.190,0,0,0,0,0,0,0,0,0,
2.040976, 17:31:58.235,0,0,0,0,0,0,0,0,0,
2.072972, 17:31:58.264,0,0,0,0,0,0,0,0,0,
2.101723, 17:31:58.295,0,0,0,0,0,0,0,0,0,
2.132137, 17:31:58.323,0,0,0,0,0,0,0,0,0,
2.161061, 17:31:58.353,0,0,0,0,0,0,0,0,0,
2.190135, 17:31:58.381,0,0,0,0,0,0,0,0,0,
2.218624, 17:31:58.410,0,0,0,0,0,0,0,0,0,
2.247704, 17:31:58.440,0,0,0,0,0,0,0,0,0,
2.276294, 17:31:58.468,0,0,0,0,0,0,0,0,0,
2.304716, 17:31:58.498,0,0,0,0,0,0,0,0,0,
2.333898, 17:31:58.526,0,0,0,0,0,0,0,0,0,
2.361892, 17:31:58.554,0,0,0,0,0,0,0,0,0,
2.390604, 17:31:58.582,0,0,0,0,0,0,0,0,0,
2.418958, 17:31:58.610,0,0,0,0,0,0,0,0,0,
2.450461, 17:31:58.643,0,0,0,0,0,0,0,0,0,
2.483621, 17:31:58.677,0,0,0,0,0,0,0,0,0,
2.525905, 17:31:58.718,0,0,0,0,0,0,0,0,0,
2.558008, 17:31:58.750,0,0,0,0,0,0,0,0,0,
2.587698, 17:31:58.779,0,0,0,0,0,0,0,0,0,
2.616102, 17:31:58.808,0,0,0,0,0,0,0,0,0,
2.656451, 17:31:58.849,0,0,0,0,0,0,0,0,0,
2.686031, 17:31:58.879,0,0,0,0,0,0,0,0,0,
2.714588, 17:31:58.906,0,0,0,0,0,0,0,0,0,
2.743727, 17:31:58.937,0,0,0,0,0,0,0,0,0,
2.77405, 17:31:58.965,0,0,0,0,0,0,0,0,0,
2.80241, 17:31:58.994,0,0,0,0,0,0,0,0,0,
2.829627, 17:31:59.021,0,0,0,0,0,0,0,0,0,
2.857211, 17:31:59.049,0,0,0,0,0,0,0,0,0,
2.886376, 17:31:59.079,0,0,0,0,0,0,0,0,0,
2.915883, 17:31:59.107,0,0,0,0,0,0,0,0,0,
2.946407, 17:31:59.139,0,0,0,0,0,0,0,0,0,
2.977998, 17:31:59.170,0,0,0,0,0,0,0,0,0,
3.011197, 17:31:59.203,0,0,0,0,0,0,0,0,0,
3.039641, 17:31:59.231,0,0,0,0,0,0,0,0,0,
3.06741, 17:31:59.260,0,0,0,0,0,0,0,0,0,
3.096907, 17:31:59.287,0,0,0,0,0,0,0,0,0,
3.124969, 17:31:59.317,0,0,0,0,0,0,0,0,0,
3.153118, 17:31:59.345,0,0,0,0,0,0,0,0,0,
3.18325, 17:31:59.375,0,0,0,0,0,0,0,0,0,
3.213352, 17:31:59.405,0,0,0,0,0,0,0,0,0,
3.241379, 17:31:59.433,0,0,0,0,0,0,0,0,0,
3.269708, 17:31:59.460,0,0,0,0,0,0,0,0,0,
3.297596, 17:31:59.489,0,0,0,0,0,0,0,0,0,
3.3243, 17:31:59.517,0,0,0,0,0,0,0,0,0,
3.353966, 17:31:59.545,0,0,0,0,0,0,0,0,0,
3.381455, 17:31:59.574,0,0,0,0,0,0,0,0,0,
3.410741, 17:31:59.601,0,0,0,0,0,0,0,0,0,
3.437975, 17:31:59.629,0,0,0,0,0,0,0,0,0,
3.465696, 17:31:59.657,0,0,0,0,0,0,0,0,0,
3.493261, 17:31:59.685,0,0,0,0,0,0,0,0,0,
3.523086, 17:31:59.715,0,0,0,0,0,0,0,0,0,
3.552344, 17:31:59.744,0,0,0,0,0,0,0,0,0,
3.579959, 17:31:59.772,0,0,0,0,0,0,0,0,0,
3.613889, 17:31:59.807,0,0,0,0,0,0,0,0,0,
3.646144, 17:31:59.839,0,0,0,0,0,0,0,0,0,
3.691437, 17:31:59.884,0,0,0,0,0,0,0,0,0,
3.72215, 17:31:59.915,0,0,0,0,0,0,0,0,0,
3.755705, 17:31:59.946,0,0,0,0,0,0,0,0,0,
3.783125, 17:31:59.975,0,0,0,0,0,0,0,0,0,
3.811922, 17:32:00.003,0,0,0,0,0,0,0,0,0,
3.841294, 17:32:00.034,0,0,0,0,0,0,0,0,0,
3.869163, 17:32:00.061,0,0,0,0,0,0,0,0,0,
3.89924, 17:32:00.091,0,0,0,0,0,0,0,0,0,
3.930579, 17:32:00.122,0,0,0,0,0,0,0,0,0,
3.961673, 17:32:00.155,0,0,0,0,0,0,0,0,0,
3.990583, 17:32:00.182,0,0,0,0,0,0,0,0,0,
4.025157, 17:32:00.217,0,0,0,0,0,0,0,0,0,
4.055137, 17:32:00.247,0,0,0,0,0,0,0,0,0,
4.084155, 17:32:00.277,0,0,0,0,0,0,0,0,0,
4.114778, 17:32:00.307,0,0,0,0,0,0,0,0,0,
4.144505, 17:32:00.337,0,0,0,0,0,0,0,0,0,
4.173703, 17:32:00.365,0,0,0,0,0,0,0,0,0,
4.203254, 17:32:00.396,0,0,0,0,0,0,0,0,0,
4.232002, 17:32:00.424,0,0,0,0,0,0,0,0,0,
4.259762, 17:32:00.451,0,0,0,0,0,0,0,0,0,
4.286881, 17:32:00.479,0,0,0,0,0,0,0,0,0,
4.315722, 17:32:00.506,0,0,0,0,0,0,0,0,0,
4.343742, 17:32:00.536,0,0,0,0,0,0,0,0,0,
4.373959, 17:32:00.565,0,0,0,0,0,0,0,0,0,
4.403031, 17:32:00.595,0,0,0,0,0,0,0,0,0,
4.431156, 17:32:00.622,0,0,0,0,0,0,0,0,0,
4.458111, 17:32:00.649,0,0,0,0,0,0,0,0,0,
4.486206, 17:32:00.679,0,0,0,0,0,0,0,0,0,
4.515385, 17:32:00.707,0,0,0,0,0,0,0,0,0,
4.544172, 17:32:00.736,0,0,0,0,0,0,0,0,0,
4.572217, 17:32:00.764,0,0,0,0,0,0,0,0,0,
4.59902, 17:32:00.790,0,0,0,0,0,0,0,0,0,
4.625866, 17:32:00.819,0,0,0,0,0,0,0,0,0,
4.655828, 17:32:00.847,0,0,0,0,0,0,0,0,0,
4.683617, 17:32:00.876,0,0,0,0,0,0,0,0,0,
4.714952, 17:32:00.906,0,0,0,0,0,0,0,0,0,
4.744224, 17:32:00.937,0,0,0,0,0,0,0,0,0,
4.779707, 17:32:00.972,0,0,0,0,0,0,0,0,0,
4.812012, 17:32:01.005,0,0,0,0,0,0,0,0,0,
4.850801, 17:32:01.044,0,0,0,0,0,0,0,0,0,
4.885764, 17:32:01.078,0,0,0,0,0,0,0,0,0,
4.917798, 17:32:01.110,0,0,0,0,0,0,0,0,0,
4.946005, 17:32:01.138,0,0,0,0,0,0,0,0,0,
4.974176, 17:32:01.166,0,0,0,0,0,0,0,0,0,
5.00133, 17:32:01.194,0,0,0,0,0,0,0,0,0,
5.029151, 17:32:01.221,0,0,0,0,0,0,0,0,0,
5.057264, 17:32:01.248,0,0,0,0,0,0,0,0,0,
5.083582, 17:32:01.275,0,0,0,0,0,0,0,0,0,
5.111419, 17:32:01.303,0,0,0,0,0,0,0,0,0,
5.15062, 17:32:01.343,0,0,0,0,0,0,0,0,0,
5.178415, 17:32:01.370,0,0,0,0,0,0,0,0,0,
5.218754, 17:32:01.410,0,0,0,0,0,0,0,0,0,
5.245622, 17:32:01.437,0,0,0,0,0,0,0,0,0,
5.274416, 17:32:01.465,0,0,0,0,0,0,0,0,0,
5.30129, 17:32:01.493,0,0,0,0,0,0,0,0,0,
5.328706, 17:32:01.520,0,0,0,0,0,0,0,0,0,
5.356119, 17:32:01.547,0,0,0,0,0,0,0,0,0,
5.38363, 17:32:01.576,0,0,0,0,0,0,0,0,0,
5.41209, 17:32:01.604,0,0,0,0,0,0,0,0,0,
5.439157, 17:32:01.631,0,0,0,0,0,0,0,0,0,
5.466298, 17:32:01.659,0,0,0,0,0,0,0,0,0,
5.49537, 17:32:01.688,0,0,0,0,0,0,0,0,0,
5.52543, 17:32:01.718,0,0,0,0,0,0,0,0,0,
5.553595, 17:32:01.745,0,0,0,0,0,0,0,0,0,
5.580471, 17:32:01.772,0,0,0,0,0,0,0,0,0,
5.609414, 17:32:01.800,0,0,0,0,0,0,0,0,0,
5.636508, 17:32:01.827,0,0,0,0,0,0,0,0,0,
5.665841, 17:32:01.859,0,0,0,0,0,0,0,0,0,
5.69622, 17:32:01.887,0,0,0,0,0,0,0,0,0,
5.725787, 17:32:01.918,0,0,0,0,0,0,0,0,0,
5.755565, 17:32:01.947,0,0,0,0,0,0,0,0,0,
5.783278, 17:32:01.975,0,0,0,0,0,0,0,0,0,
5.811739, 17:32:02.003,0,0,0,0,0,0,0,0,0,
5.839347, 17:32:02.031,0,0,0,0,0,0,0,0,0,
5.866446, 17:32:02.059,0,0,0,0,0,0,0,0,0,
5.910427, 17:32:02.104,0,0,0,0,0,0,0,0,0,
5.944308, 17:32:02.137,0,0,0,0,0,0,0,0,0,
5.980818, 17:32:02.176,0,0,0,0,0,0,0,0,0,
6.050073, 17:32:02.245,0,0,0,0,0,0,0,0,0,
6.084397, 17:32:02.278,0,0,0,0,0,0,0,0,0,
6.113953, 17:32:02.305,0,0,0,0,0,0,0,0,0,
6.141755, 17:32:02.333,0,0,0,0,0,0,0,0,0,
6.232604, 17:32:02.429,0,0,0,0,0,0,0,0,0,
6.298556, 17:32:02.492,0,0,0,0,0,0,0,0,0,
6.35384, 17:32:02.548,0,0,0,0,0,0,0,0,0,
6.436607, 17:32:02.632,0,0,0,0,0,0,0,0,0,
6.471995, 17:32:02.666,0,0,0,0,0,0,0,0,0,
6.501759, 17:32:02.693,0,0,0,0,0,0,0,0,0,
6.534214, 17:32:02.725,0,0,0,0,0,0,0,0,0,
6.575164, 17:32:02.767,0,0,0,0,0,0,0,0,0,
6.605894, 17:32:02.799,0,0,0,0,0,0,0,0,0,
6.636477, 17:32:02.828,0,0,0,0,0,0,0,0,0,
6.667705, 17:32:02.861,0,0,0,0,0,0,0,0,0,
6.698922, 17:32:02.890,0,0,0,0,0,0,0,0,0,
6.729959, 17:32:02.923,0,0,0,0,0,0,0,0,0,
6.762646, 17:32:02.956,0,0,0,0,0,0,0,0,0,
6.799083, 17:32:03.010,0,0,0,0,0,0,0,0,0,
6.84719, 17:32:03.041,0,0,0,0,0,0,0,0,0,
6.877213, 17:32:03.068,0,0,0,0,0,0,0,0,0,
6.906376, 17:32:03.099,0,0,0,0,0,0,0,0,0,
6.94752, 17:32:03.140,0,0,0,0,0,0,0,0,0,
6.987713, 17:32:03.179,0,0,0,0,0,0,0,0,0,
7.015792, 17:32:03.206,0,0,0,0,0,0,0,0,0,
7.044027, 17:32:03.236,0,0,0,0,0,0,0,0,0,
7.074602, 17:32:03.267,0,0,0,0,0,0,0,0,0,
7.106771, 17:32:03.300,0,0,0,0,0,0,0,0,0,
7.145404, 17:32:03.339,0,0,0,0,0,0,0,0,0,
7.179972, 17:32:03.372,0,0,0,0,0,0,0,0,0,
7.214816, 17:32:03.407,0,0,0,0,0,0,0,0,0,
7.245103, 17:32:03.437,0,0,0,0,0,0,0,0,0,
7.276035, 17:32:03.467,0,0,0,0,0,0,0,0,0,
7.305224, 17:32:03.497,0,0,0,0,0,0,0,0,0,
7.33447, 17:32:03.526,0,0,0,0,0,0,0,0,0,
7.364814, 17:32:03.557,0,0,0,0,0,0,0,0,0,
7.395265, 17:32:03.587,0,0,0,0,0,0,0,0,0,
7.424626, 17:32:03.617,0,0,0,0,0,0,0,0,0,
7.458233, 17:32:03.650,0,0,0,0,0,0,0,0,0,
7.486344, 17:32:03.679,0,0,0,0,0,0,0,0,0,
7.514759, 17:32:03.706,0,0,0,0,0,0,0,0,0,
7.542721, 17:32:03.734,0,0,0,0,0,0,0,0,0,
7.572186, 17:32:03.763,0,0,0,0,0,0,0,0,0,
7.600645, 17:32:03.792,0,0,0,0,0,0,0,0,0,
7.629654, 17:32:03.821,0,0,0,0,0,0,0,0,0,
7.658088, 17:32:03.850,0,0,0,0,0,0,0,0,0,
7.687614, 17:32:03.879,0,0,0,0,0,0,0,0,0,
7.722251, 17:32:03.914,0,0,0,0,0,0,0,0,0,
7.752777, 17:32:03.945,0,0,0,0,0,0,0,0,0,
7.783866, 17:32:03.976,0,0,0,0,0,0,0,0,0,
7.813055, 17:32:04.004,0,0,0,0,0,0,0,0,0,
7.841094, 17:32:04.033,0,0,0,0,0,0,0,0,0,
7.868875, 17:32:04.061,0,0,0,0,0,0,0,0,0,
7.897664, 17:32:04.090,0,0,0,0,0,0,0,0,0,
7.929543, 17:32:04.122,0,0,0,0,0,0,0,0,0,
7.959027, 17:32:04.150,0,0,0,0,0,0,0,0,0,
7.988571, 17:32:04.180,0,0,0,0,0,0,0,0,0,
8.018557, 17:32:04.210,0,0,0,0,0,0,0,0,0,
8.047309, 17:32:04.239,0,0,0,0,0,0,0,0,0,
8.078073, 17:32:04.269,0,0,0,0,0,0,0,0,0,
8.106105, 17:32:04.297,0,0,0,0,0,0,0,0,0,
8.135191, 17:32:04.325,0,0,0,0,0,0,0,0,0,
8.163746, 17:32:04.356,0,0,0,0,0,0,0,0,0,
8.193995, 17:32:04.385,0,0,0,0,0,0,0,0,0,
8.226561, 17:32:04.420,0,0,0,0,0,0,0,0,0,
8.278155, 17:32:04.471,0,0,0,0,0,0,0,0,0,
8.324967, 17:32:04.518,0,0,0,0,0,0,0,0,0,
8.355667, 17:32:04.548,0,0,0,0,0,0,0,0,0,
8.385573, 17:32:04.577,0,0,0,0,0,0,0,0,0,
8.418758, 17:32:04.609,0,0,0,0,0,0,0,0,0,
8.461464, 17:32:04.655,0,0,0,0,0,0,0,0,0,
8.501545, 17:32:04.694,0,0,0,0,0,0,0,0,0,
8.53374, 17:32:04.725,0,0,0,0,0,0,0,0,0,
8.56209, 17:32:04.755,0,0,0,0,0,0,0,0,0,
8.591502, 17:32:04.782,0,0,0,0,0,0,0,0,0,
8.620184, 17:32:04.813,0,0,0,0,0,0,0,0,0,
8.650754, 17:32:04.843,0,0,0,0,0,0,0,0,0,
8.680564, 17:32:04.873,0,0,0,0,0,0,0,0,0,
8.709601, 17:32:04.901,0,0,0,0,0,0,0,0,0,
8.738614, 17:32:04.931,0,0,0,0,0,0,0,0,0,
8.769021, 17:32:04.960,0,0,0,0,0,0,0,0,0,
8.798124, 17:32:04.989,0,0,0,0,0,0,0,0,0,
8.826804, 17:32:05.019,0,0,0,0,0,0,0,0,0,
8.860525, 17:32:05.052,0,0,0,0,0,0,0,0,0,
8.889226, 17:32:05.081,0,0,0,0,0,0,0,0,0,
8.918847, 17:32:05.110,0,0,0,0,0,0,0,0,0,
8.946948, 17:32:05.139,0,0,0,0,0,0,0,0,0,
8.977737, 17:32:05.170,0,0,0,0,0,0,0,0,0,
9.00708, 17:32:05.199,0,0,0,0,0,0,0,0,0,
9.036408, 17:32:05.228,0,0,0,0,0,0,0,0,0,
9.065453, 17:32:05.257,0,0,0,0,0,0,0,0,0,
9.094375, 17:32:05.285,0,0,0,0,0,0,0,0,0,
9.123071, 17:32:05.315,0,0,0,0,0,0,0,0,0,
9.152385, 17:32:05.344,0,0,0,0,0,0,0,0,0,
9.180583, 17:32:05.373,0,0,0,0,0,0,0,0,0,
9.209937, 17:32:05.400,0,0,0,0,0,0,0,0,0,
9.236528, 17:32:05.428,0,0,0,0,0,0,0,0,0,
9.267283, 17:32:05.460,0,0,0,0,0,0,0,0,0,
9.298617, 17:32:05.491,0,0,0,0,0,0,0,0,0,
9.328307, 17:32:05.520,0,0,0,0,0,0,0,0,0,
9.357638, 17:32:05.550,0,0,0,0,0,0,0,0,0,
9.386573, 17:32:05.580,0,0,0,0,0,0,0,0,0,
9.422419, 17:32:05.615,0,0,0,0,0,0,0,0,0,
9.455511, 17:32:05.647,0,0,0,0,0,0,0,0,0,
9.495683, 17:32:05.687,0,0,0,0,0,0,0,0,0,
9.526736, 17:32:05.720,0,0,0,0,0,0,0,0,0,
9.558541, 17:32:05.750,0,0,0,0,0,0,0,0,0,
9.586178, 17:32:05.777,0,0,0,0,0,0,0,0,0,
9.641356, 17:32:05.835,0,0,0,0,0,0,0,0,0,
9.672973, 17:32:05.865,0,0,0,0,0,0,0,0,0,
9.703859, 17:32:05.896,0,0,0,0,0,0,0,0,0,
9.735213, 17:32:05.927,0,0,0,0,0,0,0,0,0,
9.771732, 17:32:05.965,0,0,0,0,0,0,0,0,0,
9.803153, 17:32:05.995,0,0,0,0,0,0,0,0,0,
9.835045, 17:32:06.026,0,0,0,0,0,0,0,0,0,
9.864188, 17:32:06.056,0,0,0,0,0,0,0,0,0,
9.894249, 17:32:06.086,0,0,0,0,0,0,0,0,0,
9.92493, 17:32:06.117,0,0,0,0,0,0,0,0,0,
9.95911, 17:32:06.150,0,0,0,0,0,0,0,0,0,
9.98792, 17:32:06.181,0,0,0,0,0,0,0,0,0,
10.01917, 17:32:06.210,0,0,0,0,0,0,0,0,0,
10.04911, 17:32:06.242,0,0,0,0,0,0,0,0,0,
10.08008, 17:32:06.273,0,0,0,0,0,0,0,0,0,
10.11055, 17:32:06.302,0,0,0,0,0,0,0,0,0,
10.13891, 17:32:06.331,0,0,0,0,0,0,0,0,0,
10.16724, 17:32:06.359,0,0,0,0,0,0,0,0,0,
10.19851, 17:32:06.389,0,0,0,0,0,0,0,0,0,
10.2273, 17:32:06.419,0,0,0,0,0,0,0,0,0,
10.26187, 17:32:06.454,0,0,0,0,0,0,0,0,0,
10.29276, 17:32:06.484,0,0,0,0,0,0,0,0,0,
10.34897, 17:32:06.542,0,0,0,0,0,0,0,0,0,
10.38185, 17:32:06.574,0,0,0,0,0,0,0,0,0,
10.41204, 17:32:06.603,0,0,0,0,0,0,0,0,0,
10.45017, 17:32:06.642,0,0,0,0,0,0,0,0,0,
10.49115, 17:32:06.683,0,0,0,0,0,0,0,0,0,
10.52118, 17:32:06.713,0,0,0,0,0,0,0,0,0,
10.55219, 17:32:06.744,0,0,0,0,0,0,0,0,0,
10.58607, 17:32:06.779,0,0,0,0,0,0,0,0,0,
10.62101, 17:32:06.814,0,0,0,0,0,0,0,0,0,
10.65981, 17:32:06.851,0,0,0,0,0,0,0,0,0,
10.68999, 17:32:06.882,0,0,0,0,0,0,0,0,0,
10.72132, 17:32:06.914,0,0,0,0,0,0,0,0,0,
10.76179, 17:32:06.954,0,0,0,0,0,0,0,0,0,
10.78997, 17:32:06.980,0,0,0,0,0,0,0,0,0,
10.81801, 17:32:07.008,0,0,0,0,0,0,0,0,0,
10.84638, 17:32:07.038,0,0,0,0,0,0,0,0,0,
10.8759, 17:32:07.067,0,0,0,0,0,0,0,0,0,
10.90465, 17:32:07.096,0,0,0,0,0,0,0,0,0,
10.93414, 17:32:07.126,0,0,0,0,0,0,0,0,0,
10.9644, 17:32:07.156,0,0,0,0,0,0,0,0,0,
10.99348, 17:32:07.185,0,0,0,0,0,0,0,0,0,
11.02274, 17:32:07.215,0,0,0,0,0,0,0,0,0,
11.05399, 17:32:07.245,0,0,0,0,0,0,0,0,0,
11.0829, 17:32:07.276,0,0,0,0,0,0,0,0,0,
11.11481, 17:32:07.306,0,0,0,0,0,0,0,0,0,
11.14391, 17:32:07.336,0,0,0,0,0,0,0,0,0,
11.1731, 17:32:07.363,0,0,0,0,0,0,0,0,0,
11.20168, 17:32:07.393,0,0,0,0,0,0,0,0,0,
11.23257, 17:32:07.423,0,0,0,0,0,0,0,0,0,
11.26153, 17:32:07.453,0,0,0,0,0,0,0,0,0,
11.29127, 17:32:07.483,0,0,0,0,0,0,0,0,0,
11.319, 17:32:07.510,0,0,0,0,0,0,0,0,0,
11.34616, 17:32:07.539,0,0,0,0,0,0,0,0,0,
11.37641, 17:32:07.567,0,0,0,0,0,0,0,0,0,
11.40436, 17:32:07.596,0,0,0,0,0,0,0,0,0,
11.43519, 17:32:07.626,0,0,0,0,0,0,0,0,0,
11.46416, 17:32:07.657,0,0,0,0,0,0,0,0,0,
11.49473, 17:32:07.686,0,0,0,0,0,0,0,0,0,
11.52407, 17:32:07.716,0,0,0,0,0,0,0,0,0,
11.5527, 17:32:07.744,0,0,0,0,0,0,0,0,0,
11.5809, 17:32:07.774,0,0,0,0,0,0,0,0,0,
11.61165, 17:32:07.803,0,0,0,0,0,0,0,0,0,
11.63989, 17:32:07.830,0,0,0,0,0,0,0,0,0,
11.66848, 17:32:07.861,0,0,0,0,0,0,0,0,0,
11.69788, 17:32:07.889,0,0,0,0,0,0,0,0,0,
11.74329, 17:32:07.938,0,0,0,0,0,0,0,0,0,
11.79275, 17:32:07.986,0,0,0,0,0,0,0,0,0,
11.82771, 17:32:08.020,0,0,0,0,0,0,0,0,0,
11.85866, 17:32:08.049,0,0,0,0,0,0,0,0,0,
11.88675, 17:32:08.079,0,0,0,0,0,0,0,0,0,
11.92681, 17:32:08.118,0,0,0,0,0,0,0,0,0,
11.96587, 17:32:08.159,0,0,0,0,0,0,0,0,0,
11.99576, 17:32:08.187,0,0,0,0,0,0,0,0,0,
12.02297, 17:32:08.215,0,0,0,0,0,0,0,0,0,
12.05277, 17:32:08.243,0,0,0,0,0,0,0,0,0,
12.08089, 17:32:08.272,0,0,0,0,0,0,0,0,0,
12.10966, 17:32:08.300,0,0,0,0,0,0,0,0,0,
12.13803, 17:32:08.329,0,0,0,0,0,0,0,0,0,
12.16646, 17:32:08.358,0,0,0,0,0,0,0,0,0,
12.19524, 17:32:08.387,0,0,0,0,0,0,0,0,0,
12.22445, 17:32:08.417,0,0,0,0,0,0,0,0,0,
12.25468, 17:32:08.446,0,0,0,0,0,0,0,0,0,
12.28356, 17:32:08.476,0,0,0,0,0,0,0,0,0,
12.31308, 17:32:08.505,0,0,0,0,0,0,0,0,0,
12.34205, 17:32:08.534,0,0,0,0,0,0,0,0,0,
12.37181, 17:32:08.563,0,0,0,0,0,0,0,0,0,
12.40035, 17:32:08.592,0,0,0,0,0,0,0,0,0,
12.42965, 17:32:08.620,0,0,0,0,0,0,0,0,0,
12.4589, 17:32:08.650,0,0,0,0,0,0,0,0,0,
12.48901, 17:32:08.681,0,0,0,0,0,0,0,0,0,
12.5213, 17:32:08.714,0,0,0,0,0,0,0,0,0,
12.5529, 17:32:08.744,0,0,0,0,0,0,0,0,0,
12.5844, 17:32:08.777,0,0,0,0,0,0,0,0,0,
12.61469, 17:32:08.806,0,0,0,0,0,0,0,0,0,
12.64379, 17:32:08.836,0,0,0,0,0,0,0,0,0,
12.67544, 17:32:08.867,0,0,0,0,0,0,0,0,0,
12.70597, 17:32:08.899,0,0,0,0,0,0,0,0,0,
12.74011, 17:32:08.933,0,0,0,0,0,0,0,0,0,
12.7716, 17:32:08.962,0,0,0,0,0,0,0,0,0,
12.80749, 17:32:08.998,0,0,0,0,0,0,0,0,0,
12.83683, 17:32:09.028,0,0,0,0,0,0,0,0,0,
12.86565, 17:32:09.058,0,0,0,0,0,0,0,0,0,
12.90605, 17:32:09.099,0,0,0,0,0,0,0,0,0,
12.94646, 17:32:09.140,0,0,0,0,0,0,0,0,0,
12.985, 17:32:09.178,0,0,0,0,0,0,0,0,0,
13.01471, 17:32:09.206,0,0,0,0,0,0,0,0,0,
13.05581, 17:32:09.248,0,0,0,0,0,0,0,0,0,
13.09651, 17:32:09.289,0,0,0,0,0,0,0,0,0,
13.12549, 17:32:09.318,0,0,0,0,0,0,0,0,0,
13.15613, 17:32:09.349,0,0,0,0,0,0,0,0,0,
13.18469, 17:32:09.376,0,0,0,0,0,0,0,0,0,
13.21399, 17:32:09.405,0,0,0,0,0,0,0,0,0,
13.24122, 17:32:09.432,0,0,0,0,0,0,0,0,0,
13.26927, 17:32:09.461,0,0,0,0,0,0,0,0,0,
13.29974, 17:32:09.491,0,0,0,0,0,0,0,0,0,
13.32759, 17:32:09.521,0,0,0,0,0,0,0,0,0,
13.35649, 17:32:09.548,0,0,0,0,0,0,0,0,0,
13.38612, 17:32:09.578,0,0,0,0,0,0,0,0,0,
13.41829, 17:32:09.610,0,0,0,0,0,0,0,0,0,
13.44681, 17:32:09.639,0,0,0,0,0,0,0,0,0,
13.47554, 17:32:09.667,0,0,0,0,0,0,0,0,0,
13.50546, 17:32:09.698,0,0,0,0,0,0,0,0,0,
13.53571, 17:32:09.728,0,0,0,0,0,0,0,0,0,
13.56744, 17:32:09.760,0,0,0,0,0,0,0,0,0,
13.59712, 17:32:09.788,0,0,0,0,0,0,0,0,0,
13.63667, 17:32:09.830,0,0,0,0,0,0,0,0,0,
13.67394, 17:32:09.866,0,0,0,0,0,0,0,0,0,
13.70278, 17:32:09.894,0,0,0,0,0,0,0,0,0,
13.7318, 17:32:09.922,0,0,0,0,0,0,0,0,0,
13.76478, 17:32:09.957,0,0,0,0,0,0,0,0,0,
13.79593, 17:32:09.988,0,0,0,0,0,0,0,0,0,
13.82595, 17:32:10.019,0,0,0,0,0,0,0,0,0,
13.85763, 17:32:10.049,0,0,0,0,0,0,0,0,0,
13.88553, 17:32:10.078,0,0,0,0,0,0,0,0,0,
13.91926, 17:32:10.111,0,0,0,0,0,0,0,0,0,
13.94857, 17:32:10.141,0,0,0,0,0,0,0,0,0,
13.97748, 17:32:10.168,0,0,0,0,0,0,0,0,0,
14.00519, 17:32:10.197,0,0,0,0,0,0,0,0,0,
14.03472, 17:32:10.227,0,0,0,0,0,0,0,0,0,
14.06749, 17:32:10.260,0,0,0,0,0,0,0,0,0,
14.10654, 17:32:10.300,0,0,0,0,0,0,0,0,0,
14.1439, 17:32:10.337,0,0,0,0,0,0,0,0,0,
14.17792, 17:32:10.370,0,0,0,0,0,0,0,0,0,
14.20828, 17:32:10.400,0,0,0,0,0,0,0,0,0,
14.2376, 17:32:10.429,0,0,0,0,0,0,0,0,0,
14.27085, 17:32:10.464,0,0,0,0,0,0,0,0,0,
14.30587, 17:32:10.498,0,0,0,0,0,0,0,0,0,
14.33471, 17:32:10.526,0,0,0,0,0,0,0,0,0,
14.36167, 17:32:10.553,0,0,0,0,0,0,0,0,0,
14.3913, 17:32:10.582,0,0,0,0,0,0,0,0,0,
14.41958, 17:32:10.610,0,0,0,0,0,0,0,0,0,
14.44575, 17:32:10.637,0,0,0,0,0,0,0,0,0,
14.47424, 17:32:10.666,0,0,0,0,0,0,0,0,0,
14.50423, 17:32:10.696,0,0,0,0,0,0,0,0,0,
14.53522, 17:32:10.727,0,0,0,0,0,0,0,0,0,
14.56549, 17:32:10.758,0,0,0,0,0,0,0,0,0,
14.59462, 17:32:10.787,0,0,0,0,0,0,0,0,0,
14.62378, 17:32:10.817,0,0,0,0,0,0,0,0,0,
14.65213, 17:32:10.844,0,0,0,0,0,0,0,0,0,
14.67894, 17:32:10.871,0,0,0,0,0,0,0,0,0,
14.70757, 17:32:10.900,0,0,0,0,0,0,0,0,0,
14.73728, 17:32:10.928,0,0,0,0,0,0,0,0,0,
14.76759, 17:32:10.959,0,0,0,0,0,0,0,0,0,
14.79733, 17:32:10.989,0,0,0,0,0,0,0,0,0,
14.8259, 17:32:11.018,0,0,0,0,0,0,0,0,0,
14.85607, 17:32:11.047,0,0,0,0,0,0,0,0,0,
14.88518, 17:32:11.078,0,0,0,0,0,0,0,0,0,
14.91601, 17:32:11.108,0,0,0,0,0,0,0,0,0,
14.94531, 17:32:11.138,0,0,0,0,0,0,0,0,0,
14.97632, 17:32:11.168,0,0,0,0,0,0,0,0,0,
15.00763, 17:32:11.200,0,0,0,0,0,0,0,0,0,
15.03756, 17:32:11.230,0,0,0,0,0,0,0,0,0,
15.06973, 17:32:11.263,0,0,0,0,0,0,0,0,0,
15.09936, 17:32:11.291,0,0,0,0,0,0,0,0,0,
15.13005, 17:32:11.322,0,0,0,0,0,0,0,0,0,
15.16407, 17:32:11.357,0,0,0,0,0,0,0,0,0,
15.19532, 17:32:11.387,0,0,0,0,0,0,0,0,0,
15.22745, 17:32:11.421,0,0,0,0,0,0,0,0,0,
15.2628, 17:32:11.457,0,0,0,0,0,0,0,0,0,
15.30339, 17:32:11.495,0,0,0,0,0,0,0,0,0,
15.33533, 17:32:11.527,0,0,0,0,0,0,0,0,0,
15.36572, 17:32:11.557,0,0,0,0,0,0,0,0,0,
15.39958, 17:32:11.591,0,0,0,0,0,0,0,0,0,
15.42889, 17:32:11.620,0,0,0,0,0,0,0,0,0,
15.45884, 17:32:11.650,0,0,0,0,0,0,0,0,0,
15.48698, 17:32:11.679,0,0,0,0,0,0,0,0,0,
15.51705, 17:32:11.708,0,0,0,0,0,0,0,0,0,
15.54601, 17:32:11.739,0,0,0,0,0,0,0,0,0,
15.591, 17:32:11.784,0,0,0,0,0,0,0,0,0,
15.62305, 17:32:11.815,0,0,0,0,0,0,0,0,0,
15.65654, 17:32:11.849,0,0,0,0,0,0,0,0,0,
Elapsed_Time, System_Time, Euler_Roll, Euler_Pitch, Euler_Yaw, Gyro_Roll, Gyro_Pitch, Gyro_Yaw, Accel_x, Accel_y, Accel_z
0.02, 17:32:46.999,0,0,0,0,0,0,0,0,0,
0.04, 17:32:47.128,0,0,0,0,0,0,0,0,0,
0.3733333, 17:32:47.761,0,0,0,0,0,0,0,0,0,
0.4639772, 17:32:47.842,0,0,0,0,0,0,0,0,0,
0.5280915, 17:32:47.901,0,0,0,0,0,0,0,0,0,
0.5771413, 17:32:47.949,0,0,0,0,0,0,0,0,0,
0.6873322, 17:32:48.062,0,0,0,0,0,0,0,0,0,
0.7373667, 17:32:48.108,0,0,0,0,0,0,0,0,0,
0.7857329, 17:32:48.157,0,0,0,0,0,0,0,0,0,
0.8339435, 17:32:48.205,0,0,0,0,0,0,0,0,0,
0.8749824, 17:32:48.247,0,0,0,0,0,0,0,0,0,
0.9325393, 17:32:48.305,0,0,0,0,0,0,0,0,0,
0.972911, 17:32:48.344,0,0,0,0,0,0,0,0,0,
1.006096, 17:32:48.377,0,0,0,0,0,0,0,0,0,
1.038907, 17:32:48.408,0,0,0,0,0,0,0,0,0,
1.076846, 17:32:48.447,0,0,0,0,0,0,0,0,0,
1.111561, 17:32:48.482,0,0,0,0,0,0,0,0,0,
1.150188, 17:32:48.520,0,0,0,0,0,0,0,0,0,
1.186271, 17:32:48.557,0,0,0,0,0,0,0,0,0,
1.219199, 17:32:48.588,0,0,0,0,0,0,0,0,0,
1.254113, 17:32:48.624,0,0,0,0,0,0,0,0,0,
1.2886, 17:32:48.659,0,0,0,0,0,0,0,0,0,
1.318925, 17:32:48.689,0,0,0,0,0,0,0,0,0,
1.360939, 17:32:48.733,0,0,0,0,0,0,0,0,0,
1.394176, 17:32:48.765,0,0,0,0,0,0,0,0,0,
1.430876, 17:32:48.801,0,0,0,0,0,0,0,0,0,
1.517872, 17:32:48.891,0,0,0,0,0,0,0,0,0,
1.55297, 17:32:48.924,0,0,0,0,0,0,0,0,0,
1.589413, 17:32:49.031,0,0,0,0,0,0,0,0,0,
1.694841, 17:32:49.068,0,0,0,0,0,0,0,0,0,
1.879293, 17:32:49.256,0,0,0,0,0,0,0,0,0,
2.109149, 17:32:49.489,0,0,0,0,0,0,0,0,0,
2.157191, 17:32:49.528,0,0,0,0,0,0,0,0,0,
2.191795, 17:32:49.562,0,0,0,0,0,0,0,0,0,
2.226323, 17:32:49.597,0,0,0,0,0,0,0,0,0,
2.259362, 17:32:49.630,0,0,0,0,0,0,0,0,0,
2.294905, 17:32:49.666,0,0,0,0,0,0,0,0,0,
2.330458, 17:32:49.702,0,0,0,0,0,0,0,0,0,
2.364332, 17:32:49.735,0,0,0,0,0,0,0,0,0,
2.396104, 17:32:49.766,0,0,0,0,0,0,0,0,0,
2.428364, 17:32:49.799,0,0,0,0,0,0,0,0,0,
2.465854, 17:32:49.838,0,0,0,0,0,0,0,0,0,
2.503793, 17:32:49.875,0,0,0,0,0,0,0,0,0,
2.543662, 17:32:49.914,0,0,0,0,0,0,0,0,0,
2.579359, 17:32:49.949,0,0,0,0,0,0,0,0,0,
2.617242, 17:32:49.987,0,0,0,0,0,0,0,0,0,
2.655102, 17:32:50.027,0,0,0,0,0,0,0,0,0,
2.691954, 17:32:50.063,0,0,0,0,0,0,0,0,0,
2.733194, 17:32:50.104,0,0,0,0,0,0,0,0,0,
2.772112, 17:32:50.143,0,0,0,0,0,0,0,0,0,
2.812843, 17:32:50.184,0,0,0,0,0,0,0,0,0,
2.850053, 17:32:50.222,0,0,0,0,0,0,0,0,0,
2.888693, 17:32:50.261,0,0,0,0,0,0,0,0,0,
2.931581, 17:32:50.303,0,0,0,0,0,0,0,0,0,
2.977484, 17:32:50.351,0,0,0,0,0,0,0,0,0,
3.024484, 17:32:50.397,0,0,0,0,0,0,0,0,0,
3.060992, 17:32:50.432,0,0,0,0,0,0,0,0,0,
3.104712, 17:32:50.477,0,0,0,0,0,0,0,0,0,
3.153724, 17:32:50.527,0,0,0,0,0,0,0,0,0,
3.204146, 17:32:50.578,0,0,0,0,0,0,0,0,0,
3.248544, 17:32:50.620,0,0,0,0,0,0,0,0,0,
3.296584, 17:32:50.668,0,0,0,0,0,0,0,0,0,
3.334904, 17:32:50.705,0,0,0,0,0,0,0,0,0,
3.377007, 17:32:50.748,0,0,0,0,0,0,0,0,0,
3.412771, 17:32:50.783,0,0,0,0,0,0,0,0,0,
3.464206, 17:32:50.835,0,0,0,0,0,0,0,0,0,
3.501745, 17:32:50.873,0,0,0,0,0,0,0,0,0,
3.538992, 17:32:50.909,0,0,0,0,0,0,0,0,0,
3.571731, 17:32:50.943,0,0,0,0,0,0,0,0,0,
3.617548, 17:32:50.989,0,0,0,0,0,0,0,0,0,
3.660962, 17:32:51.033,0,0,0,0,0,0,0,0,0,
3.69619, 17:32:51.066,0,0,0,0,0,0,0,0,0,
3.729838, 17:32:51.101,0,0,0,0,0,0,0,0,0,
3.770257, 17:32:51.140,0,0,0,0,0,0,0,0,0,
3.806015, 17:32:51.176,0,0,0,0,0,0,0,0,0,
3.840899, 17:32:51.211,0,0,0,0,0,0,0,0,0,
3.877734, 17:32:51.249,0,0,0,0,0,0,0,0,0,
3.91689, 17:32:51.288,0,0,0,0,0,0,0,0,0,
3.958678, 17:32:51.330,0,0,0,0,0,0,0,0,0,
3.998989, 17:32:51.370,0,0,0,0,0,0,0,0,0,
4.034701, 17:32:51.406,0,0,0,0,0,0,0,0,0,
4.070197, 17:32:51.440,0,0,0,0,0,0,0,0,0,
4.108458, 17:32:51.479,0,0,0,0,0,0,0,0,0,
4.145108, 17:32:51.515,0,0,0,0,0,0,0,0,0,
4.178508, 17:32:51.549,0,0,0,0,0,0,0,0,0,
4.213586, 17:32:51.584,0,0,0,0,0,0,0,0,0,
4.249324, 17:32:51.621,0,0,0,0,0,0,0,0,0,
4.295753, 17:32:51.668,0,0,0,0,0,0,0,0,0,
4.344154, 17:32:51.718,0,0,0,0,0,0,0,0,0,
4.390377, 17:32:51.762,0,0,0,0,0,0,0,0,0,
4.429459, 17:32:51.800,0,0,0,0,0,0,0,0,0,
4.469075, 17:32:51.840,0,0,0,0,0,0,0,0,0,
4.509233, 17:32:51.879,0,0,0,0,0,0,0,0,0,
4.54573, 17:32:51.916,0,0,0,0,0,0,0,0,0,
4.578785, 17:32:51.948,0,0,0,0,0,0,0,0,0,
4.61777, 17:32:51.988,0,0,0,0,0,0,0,0,0,
4.656961, 17:32:52.028,0,0,0,0,0,0,0,0,0,
4.693328, 17:32:52.064,0,0,0,0,0,0,0,0,0,
4.72888, 17:32:52.100,0,0,0,0,0,0,0,0,0,
4.771906, 17:32:52.144,0,0,0,0,0,0,0,0,0,
4.811275, 17:32:52.183,0,0,0,0,0,0,0,0,0,
4.846632, 17:32:52.217,0,0,0,0,0,0,0,0,0,
4.881791, 17:32:52.252,0,0,0,0,0,0,0,0,0,
4.922026, 17:32:52.293,0,0,0,0,0,0,0,0,0,
4.962191, 17:32:52.334,0,0,0,0,0,0,0,0,0,
5.002789, 17:32:52.374,0,0,0,0,0,0,0,0,0,
5.038272, 17:32:52.407,0,0,0,0,0,0,0,0,0,
5.07985, 17:32:52.451,0,0,0,0,0,0,0,0,0,
5.125115, 17:32:52.497,0,0,0,0,0,0,0,0,0,
5.164005, 17:32:52.536,0,0,0,0,0,0,0,0,0,
5.222064, 17:32:52.594,0,0,0,0,0,0,0,0,0,
5.265245, 17:32:52.636,0,0,0,0,0,0,0,0,0,
5.310023, 17:32:52.680,0,0,0,0,0,0,0,0,0,
5.34405, 17:32:52.714,0,0,0,0,0,0,0,0,0,
5.378047, 17:32:52.747,0,0,0,0,0,0,0,0,0,
5.417933, 17:32:52.789,0,0,0,0,0,0,0,0,0,
5.466681, 17:32:52.839,0,0,0,0,0,0,0,0,0,
5.508176, 17:32:52.879,0,0,0,0,0,0,0,0,0,
5.555817, 17:32:52.927,0,0,0,0,0,0,0,0,0,
5.597352, 17:32:52.968,0,0,0,0,0,0,0,0,0,
5.638028, 17:32:53.009,0,0,0,0,0,0,0,0,0,
5.674072, 17:32:53.045,0,0,0,0,0,0,0,0,0,
5.708069, 17:32:53.079,0,0,0,0,0,0,0,0,0,
5.74745, 17:32:53.118,0,0,0,0,0,0,0,0,0,
5.784703, 17:32:53.155,0,0,0,0,0,0,0,0,0,
5.818536, 17:32:53.188,0,0,0,0,0,0,0,0,0,
5.857296, 17:32:53.227,0,0,0,0,0,0,0,0,0,
5.895572, 17:32:53.266,0,0,0,0,0,0,0,0,0,
5.935104, 17:32:53.305,0,0,0,0,0,0,0,0,0,
5.973307, 17:32:53.343,0,0,0,0,0,0,0,0,0,
6.010184, 17:32:53.381,0,0,0,0,0,0,0,0,0,
6.044688, 17:32:53.416,0,0,0,0,0,0,0,0,0,
6.082126, 17:32:53.453,0,0,0,0,0,0,0,0,0,
6.120562, 17:32:53.491,0,0,0,0,0,0,0,0,0,
6.156347, 17:32:53.527,0,0,0,0,0,0,0,0,0,
6.189769, 17:32:53.561,0,0,0,0,0,0,0,0,0,
6.224147, 17:32:53.595,0,0,0,0,0,0,0,0,0,
6.257814, 17:32:53.627,0,0,0,0,0,0,0,0,0,
6.298354, 17:32:53.668,0,0,0,0,0,0,0,0,0,
6.335051, 17:32:53.706,0,0,0,0,0,0,0,0,0,
6.3695, 17:32:53.741,0,0,0,0,0,0,0,0,0,
6.403374, 17:32:53.775,0,0,0,0,0,0,0,0,0,
6.441784, 17:32:53.813,0,0,0,0,0,0,0,0,0,
6.481067, 17:32:53.852,0,0,0,0,0,0,0,0,0,
6.519628, 17:32:53.890,0,0,0,0,0,0,0,0,0,
6.553697, 17:32:53.924,0,0,0,0,0,0,0,0,0,
6.58891, 17:32:53.961,0,0,0,0,0,0,0,0,0,
6.627084, 17:32:53.999,0,0,0,0,0,0,0,0,0,
6.679129, 17:32:54.052,0,0,0,0,0,0,0,0,0,
6.731009, 17:32:54.104,0,0,0,0,0,0,0,0,0,
6.770541, 17:32:54.142,0,0,0,0,0,0,0,0,0,
6.806323, 17:32:54.178,0,0,0,0,0,0,0,0,0,
6.844123, 17:32:54.214,0,0,0,0,0,0,0,0,0,
6.879547, 17:32:54.249,0,0,0,0,0,0,0,0,0,
6.914284, 17:32:54.285,0,0,0,0,0,0,0,0,0,
6.955458, 17:32:54.326,0,0,0,0,0,0,0,0,0,
6.993296, 17:32:54.365,0,0,0,0,0,0,0,0,0,
7.032966, 17:32:54.404,0,0,0,0,0,0,0,0,0,
7.070998, 17:32:54.442,0,0,0,0,0,0,0,0,0,
7.106114, 17:32:54.477,0,0,0,0,0,0,0,0,0,
7.140654, 17:32:54.512,0,0,0,0,0,0,0,0,0,
7.174645, 17:32:54.545,0,0,0,0,0,0,0,0,0,
7.215412, 17:32:54.587,0,0,0,0,0,0,0,0,0,
7.25499, 17:32:54.626,0,0,0,0,0,0,0,0,0,
7.290808, 17:32:54.662,0,0,0,0,0,0,0,0,0,
7.326939, 17:32:54.698,0,0,0,0,0,0,0,0,0,
7.366674, 17:32:54.737,0,0,0,0,0,0,0,0,0,
7.406006, 17:32:54.778,0,0,0,0,0,0,0,0,0,
7.444115, 17:32:54.815,0,0,0,0,0,0,0,0,0,
7.479296, 17:32:54.849,0,0,0,0,0,0,0,0,0,
7.516755, 17:32:54.887,0,0,0,0,0,0,0,0,0,
7.555679, 17:32:54.926,0,0,0,0,0,0,0,0,0,
7.591546, 17:32:54.963,0,0,0,0,0,0,0,0,0,
7.626816, 17:32:54.997,0,0,0,0,0,0,0,0,0,
7.664612, 17:32:55.035,0,0,0,0,0,0,0,0,0,
7.703029, 17:32:55.073,0,0,0,0,0,0,0,0,0,
7.742574, 17:32:55.114,0,0,0,0,0,0,0,0,0,
7.780427, 17:32:55.151,0,0,0,0,0,0,0,0,0,
7.823489, 17:32:55.196,0,0,0,0,0,0,0,0,0,
7.874827, 17:32:55.246,0,0,0,0,0,0,0,0,0,
7.934177, 17:32:55.306,0,0,0,0,0,0,0,0,0,
7.971927, 17:32:55.343,0,0,0,0,0,0,0,0,0,
8.005822, 17:32:55.376,0,0,0,0,0,0,0,0,0,
8.049624, 17:32:55.420,0,0,0,0,0,0,0,0,0,
8.087765, 17:32:55.458,0,0,0,0,0,0,0,0,0,
8.124388, 17:32:55.496,0,0,0,0,0,0,0,0,0,
8.157161, 17:32:55.527,0,0,0,0,0,0,0,0,0,
8.199795, 17:32:55.571,0,0,0,0,0,0,0,0,0,
8.237594, 17:32:55.608,0,0,0,0,0,0,0,0,0,
8.271338, 17:32:55.642,0,0,0,0,0,0,0,0,0,
8.306236, 17:32:55.677,0,0,0,0,0,0,0,0,0,
8.34354, 17:32:55.714,0,0,0,0,0,0,0,0,0,
8.381584, 17:32:55.752,0,0,0,0,0,0,0,0,0,
8.418954, 17:32:55.789,0,0,0,0,0,0,0,0,0,
8.451451, 17:32:55.822,0,0,0,0,0,0,0,0,0,
8.486272, 17:32:55.858,0,0,0,0,0,0,0,0,0,
8.528182, 17:32:55.899,0,0,0,0,0,0,0,0,0,
8.571341, 17:32:55.942,0,0,0,0,0,0,0,0,0,
8.610531, 17:32:55.982,0,0,0,0,0,0,0,0,0,
8.64457, 17:32:56.016,0,0,0,0,0,0,0,0,0,
8.680063, 17:32:56.050,0,0,0,0,0,0,0,0,0,
8.726089, 17:32:56.097,0,0,0,0,0,0,0,0,0,
8.786169, 17:32:56.159,0,0,0,0,0,0,0,0,0,
8.824742, 17:32:56.196,0,0,0,0,0,0,0,0,0,
8.861917, 17:32:56.233,0,0,0,0,0,0,0,0,0,
8.902721, 17:32:56.274,0,0,0,0,0,0,0,0,0,
8.942667, 17:32:56.314,0,0,0,0,0,0,0,0,0,
8.981648, 17:32:56.353,0,0,0,0,0,0,0,0,0,
9.020039, 17:32:56.393,0,0,0,0,0,0,0,0,0,
9.070895, 17:32:56.442,0,0,0,0,0,0,0,0,0,
9.111759, 17:32:56.483,0,0,0,0,0,0,0,0,0,
9.145867, 17:32:56.517,0,0,0,0,0,0,0,0,0,
9.180424, 17:32:56.550,0,0,0,0,0,0,0,0,0,
9.217446, 17:32:56.587,0,0,0,0,0,0,0,0,0,
9.256875, 17:32:56.628,0,0,0,0,0,0,0,0,0,
9.294993, 17:32:56.666,0,0,0,0,0,0,0,0,0,
9.333879, 17:32:56.705,0,0,0,0,0,0,0,0,0,
9.371696, 17:32:56.743,0,0,0,0,0,0,0,0,0,
9.410601, 17:32:56.782,0,0,0,0,0,0,0,0,0,
9.443571, 17:32:56.815,0,0,0,0,0,0,0,0,0,
9.47815, 17:32:56.849,0,0,0,0,0,0,0,0,0,
9.516269, 17:32:56.888,0,0,0,0,0,0,0,0,0,
9.556171, 17:32:56.927,0,0,0,0,0,0,0,0,0,
9.59761, 17:32:56.969,0,0,0,0,0,0,0,0,0,
9.63337, 17:32:57.004,0,0,0,0,0,0,0,0,0,
9.669299, 17:32:57.040,0,0,0,0,0,0,0,0,0,
9.712873, 17:32:57.084,0,0,0,0,0,0,0,0,0,
9.755959, 17:32:57.126,0,0,0,0,0,0,0,0,0,
9.790662, 17:32:57.161,0,0,0,0,0,0,0,0,0,
9.826153, 17:32:57.198,0,0,0,0,0,0,0,0,0,
9.864728, 17:32:57.236,0,0,0,0,0,0,0,0,0,
9.903238, 17:32:57.275,0,0,0,0,0,0,0,0,0,
9.937765, 17:32:57.309,0,0,0,0,0,0,0,0,0,
9.973798, 17:32:57.345,0,0,0,0,0,0,0,0,0,
10.00941, 17:32:57.381,0,0,0,0,0,0,0,0,0,
10.04909, 17:32:57.420,0,0,0,0,0,0,0,0,0,
10.08571, 17:32:57.456,0,0,0,0,0,0,0,0,0,
10.12308, 17:32:57.496,0,0,0,0,0,0,0,0,0,
10.16303, 17:32:57.534,0,0,0,0,0,0,0,0,0,
10.22396, 17:32:57.596,0,0,0,0,0,0,0,0,0,
10.26534, 17:32:57.636,0,0,0,0,0,0,0,0,0,
10.30249, 17:32:57.673,0,0,0,0,0,0,0,0,0,
10.34005, 17:32:57.711,0,0,0,0,0,0,0,0,0,
10.37899, 17:32:57.749,0,0,0,0,0,0,0,0,0,
10.4239, 17:32:57.796,0,0,0,0,0,0,0,0,0,
10.45917, 17:32:57.829,0,0,0,0,0,0,0,0,0,
10.49292, 17:32:57.863,0,0,0,0,0,0,0,0,0,
10.53464, 17:32:57.906,0,0,0,0,0,0,0,0,0,
10.57586, 17:32:57.947,0,0,0,0,0,0,0,0,0,
10.61292, 17:32:57.985,0,0,0,0,0,0,0,0,0,
10.65104, 17:32:58.022,0,0,0,0,0,0,0,0,0,
10.69213, 17:32:58.063,0,0,0,0,0,0,0,0,0,
10.73224, 17:32:58.103,0,0,0,0,0,0,0,0,0,
10.76716, 17:32:58.138,0,0,0,0,0,0,0,0,0,
10.80363, 17:32:58.174,0,0,0,0,0,0,0,0,0,
10.84391, 17:32:58.215,0,0,0,0,0,0,0,0,0,
10.8856, 17:32:58.256,0,0,0,0,0,0,0,0,0,
10.92194, 17:32:58.293,0,0,0,0,0,0,0,0,0,
10.95848, 17:32:58.329,0,0,0,0,0,0,0,0,0,
10.9957, 17:32:58.366,0,0,0,0,0,0,0,0,0,
11.03487, 17:32:58.405,0,0,0,0,0,0,0,0,0,
11.06979, 17:32:58.441,0,0,0,0,0,0,0,0,0,
11.11126, 17:32:58.482,0,0,0,0,0,0,0,0,0,
11.14957, 17:32:58.520,0,0,0,0,0,0,0,0,0,
11.19231, 17:32:58.564,0,0,0,0,0,0,0,0,0,
11.23228, 17:32:58.603,0,0,0,0,0,0,0,0,0,
11.26658, 17:32:58.637,0,0,0,0,0,0,0,0,0,
11.30816, 17:32:58.679,0,0,0,0,0,0,0,0,0,
11.36014, 17:32:58.733,0,0,0,0,0,0,0,0,0,
11.4088, 17:32:58.781,0,0,0,0,0,0,0,0,0,
11.44854, 17:32:58.820,0,0,0,0,0,0,0,0,0,
11.48498, 17:32:58.855,0,0,0,0,0,0,0,0,0,
11.52394, 17:32:58.894,0,0,0,0,0,0,0,0,0,
11.56245, 17:32:58.933,0,0,0,0,0,0,0,0,0,
11.59796, 17:32:58.968,0,0,0,0,0,0,0,0,0,
11.63315, 17:32:59.004,0,0,0,0,0,0,0,0,0,
11.6719, 17:32:59.042,0,0,0,0,0,0,0,0,0,
11.71373, 17:32:59.084,0,0,0,0,0,0,0,0,0,
11.74644, 17:32:59.117,0,0,0,0,0,0,0,0,0,
11.78127, 17:32:59.151,0,0,0,0,0,0,0,0,0,
11.81581, 17:32:59.185,0,0,0,0,0,0,0,0,0,
11.8521, 17:32:59.223,0,0,0,0,0,0,0,0,0,
11.89492, 17:32:59.266,0,0,0,0,0,0,0,0,0,
11.92915, 17:32:59.301,0,0,0,0,0,0,0,0,0,
11.96309, 17:32:59.334,0,0,0,0,0,0,0,0,0,
12.00397, 17:32:59.375,0,0,0,0,0,0,0,0,0,
12.04157, 17:32:59.412,0,0,0,0,0,0,0,0,0,
12.07848, 17:32:59.448,0,0,0,0,0,0,0,0,0,
12.11085, 17:32:59.482,0,0,0,0,0,0,0,0,0,
12.147, 17:32:59.517,0,0,0,0,0,0,0,0,0,
12.18525, 17:32:59.556,0,0,0,0,0,0,0,0,0,
12.2263, 17:32:59.597,0,0,0,0,0,0,0,0,0,
12.26392, 17:32:59.634,0,0,0,0,0,0,0,0,0,
12.29834, 17:32:59.668,0,0,0,0,0,0,0,0,0,
12.33224, 17:32:59.703,0,0,0,0,0,0,0,0,0,
12.36901, 17:32:59.740,0,0,0,0,0,0,0,0,0,
12.41187, 17:32:59.783,0,0,0,0,0,0,0,0,0,
12.45272, 17:32:59.825,0,0,0,0,0,0,0,0,0,
12.49538, 17:32:59.868,0,0,0,0,0,0,0,0,0,
12.53733, 17:32:59.909,0,0,0,0,0,0,0,0,0,
12.58277, 17:32:59.954,0,0,0,0,0,0,0,0,0,
12.62377, 17:32:59.995,0,0,0,0,0,0,0,0,0,
12.66161, 17:33:00.033,0,0,0,0,0,0,0,0,0,
12.69924, 17:33:00.069,0,0,0,0,0,0,0,0,0,
12.73726, 17:33:00.110,0,0,0,0,0,0,0,0,0,
12.77664, 17:33:00.148,0,0,0,0,0,0,0,0,0,
12.81094, 17:33:00.183,0,0,0,0,0,0,0,0,0,
12.85056, 17:33:00.221,0,0,0,0,0,0,0,0,0,
12.89826, 17:33:00.269,0,0,0,0,0,0,0,0,0,
12.94093, 17:33:00.314,0,0,0,0,0,0,0,0,0,
12.98226, 17:33:00.353,0,0,0,0,0,0,0,0,0,
13.02668, 17:33:00.398,0,0,0,0,0,0,0,0,0,
13.07415, 17:33:00.445,0,0,0,0,0,0,0,0,0,
13.1214, 17:33:00.493,0,0,0,0,0,0,0,0,0,
13.16122, 17:33:00.533,0,0,0,0,0,0,0,0,0,
13.20672, 17:33:00.578,0,0,0,0,0,0,0,0,0,
13.25377, 17:33:00.625,0,0,0,0,0,0,0,0,0,
13.29729, 17:33:00.668,0,0,0,0,0,0,0,0,0,
13.34305, 17:33:00.716,0,0,0,0,0,0,0,0,0,
13.38332, 17:33:00.754,0,0,0,0,0,0,0,0,0,
13.43017, 17:33:00.802,0,0,0,0,0,0,0,0,0,
13.478, 17:33:00.850,0,0,0,0,0,0,0,0,0,
13.51532, 17:33:00.887,0,0,0,0,0,0,0,0,0,
13.56311, 17:33:00.936,0,0,0,0,0,0,0,0,0,
13.60957, 17:33:00.981,0,0,0,0,0,0,0,0,0,
13.65372, 17:33:01.025,0,0,0,0,0,0,0,0,0,
13.6983, 17:33:01.070,0,0,0,0,0,0,0,0,0,
13.74328, 17:33:01.117,0,0,0,0,0,0,0,0,0,
13.78976, 17:33:01.161,0,0,0,0,0,0,0,0,0,
13.82974, 17:33:01.201,0,0,0,0,0,0,0,0,0,
13.86993, 17:33:01.241,0,0,0,0,0,0,0,0,0,
13.91631, 17:33:01.288,0,0,0,0,0,0,0,0,0,
13.96486, 17:33:01.337,0,0,0,0,0,0,0,0,0,
14.00783, 17:33:01.378,0,0,0,0,0,0,0,0,0,
14.04747, 17:33:01.418,0,0,0,0,0,0,0,0,0,
14.0932, 17:33:01.465,0,0,0,0,0,0,0,0,0,
14.14109, 17:33:01.513,0,0,0,0,0,0,0,0,0,
14.18551, 17:33:01.556,0,0,0,0,0,0,0,0,0,
14.22883, 17:33:01.600,0,0,0,0,0,0,0,0,0,
14.27139, 17:33:01.643,0,0,0,0,0,0,0,0,0,
14.31909, 17:33:01.691,0,0,0,0,0,0,0,0,0,
14.36384, 17:33:01.735,0,0,0,0,0,0,0,0,0,
14.40476, 17:33:01.776,0,0,0,0,0,0,0,0,0,
14.45158, 17:33:01.823,0,0,0,0,0,0,0,0,0,
14.4962, 17:33:01.868,0,0,0,0,0,0,0,0,0,
14.53995, 17:33:01.911,0,0,0,0,0,0,0,0,0,
14.5819, 17:33:01.955,0,0,0,0,0,0,0,0,0,
14.62674, 17:33:02.000,0,0,0,0,0,0,0,0,0,
14.67572, 17:33:02.048,0,0,0,0,0,0,0,0,0,
14.71894, 17:33:02.091,0,0,0,0,0,0,0,0,0,
14.75968, 17:33:02.130,0,0,0,0,0,0,0,0,0,
14.80652, 17:33:02.179,0,0,0,0,0,0,0,0,0,
14.85657, 17:33:02.229,0,0,0,0,0,0,0,0,0,
14.90431, 17:33:02.277,0,0,0,0,0,0,0,0,0,
14.94166, 17:33:02.313,0,0,0,0,0,0,0,0,0,
14.98192, 17:33:02.352,0,0,0,0,0,0,0,0,0,
15.02962, 17:33:02.400,0,0,0,0,0,0,0,0,0,
15.0729, 17:33:02.444,0,0,0,0,0,0,0,0,0,
15.1167, 17:33:02.488,0,0,0,0,0,0,0,0,0,
15.16091, 17:33:02.534,0,0,0,0,0,0,0,0,0,
15.21055, 17:33:02.582,0,0,0,0,0,0,0,0,0,
15.25289, 17:33:02.623,0,0,0,0,0,0,0,0,0,
15.29386, 17:33:02.665,0,0,0,0,0,0,0,0,0,
15.33705, 17:33:02.709,0,0,0,0,0,0,0,0,0,
15.37927, 17:33:02.751,0,0,0,0,0,0,0,0,0,
15.41752, 17:33:02.788,0,0,0,0,0,0,0,0,0,
15.45196, 17:33:02.823,0,0,0,0,0,0,0,0,0,
15.48542, 17:33:02.857,0,0,0,0,0,0,0,0,0,
15.52371, 17:33:02.896,0,0,0,0,0,0,0,0,0,
15.56701, 17:33:02.938,0,0,0,0,0,0,0,0,0,
15.60658, 17:33:02.978,0,0,0,0,0,0,0,0,0,
15.64131, 17:33:03.012,0,0,0,0,0,0,0,0,0,
15.67833, 17:33:03.048,0,0,0,0,0,0,0,0,0,
15.71776, 17:33:03.089,0,0,0,0,0,0,0,0,0,
15.76217, 17:33:03.134,0,0,0,0,0,0,0,0,0,
15.80691, 17:33:03.179,0,0,0,0,0,0,0,0,0,
15.85201, 17:33:03.223,0,0,0,0,0,0,0,0,0,
15.89338, 17:33:03.265,0,0,0,0,0,0,0,0,0,
15.93219, 17:33:03.304,0,0,0,0,0,0,0,0,0,
15.96788, 17:33:03.339,0,0,0,0,0,0,0,0,0,
16.01196, 17:33:03.383,0,0,0,0,0,0,0,0,0,
16.06115, 17:33:03.433,0,0,0,0,0,0,0,0,0,
16.10351, 17:33:03.474,0,0,0,0,0,0,0,0,0,
16.15631, 17:33:03.527,0,0,0,0,0,0,0,0,0,
16.19261, 17:33:03.563,0,0,0,0,0,0,0,0,0,
16.23454, 17:33:03.605,0,0,0,0,0,0,0,0,0,
16.27296, 17:33:03.644,0,0,0,0,0,0,0,0,0,
16.30955, 17:33:03.680,0,0,0,0,0,0,0,0,0,
16.34703, 17:33:03.718,0,0,0,0,0,0,0,0,0,
16.38939, 17:33:03.760,0,0,0,0,0,0,0,0,0,
16.42817, 17:33:03.799,0,0,0,0,0,0,0,0,0,
16.4634, 17:33:03.834,0,0,0,0,0,0,0,0,0,
16.49905, 17:33:03.869,0,0,0,0,0,0,0,0,0,
16.54068, 17:33:03.913,0,0,0,0,0,0,0,0,0,
16.57914, 17:33:03.949,0,0,0,0,0,0,0,0,0,
16.61778, 17:33:03.988,0,0,0,0,0,0,0,0,0,
16.65342, 17:33:04.025,0,0,0,0,0,0,0,0,0,
16.6924, 17:33:04.064,0,0,0,0,0,0,0,0,0,
16.72945, 17:33:04.101,0,0,0,0,0,0,0,0,0,
16.76636, 17:33:04.139,0,0,0,0,0,0,0,0,0,
16.8061, 17:33:04.177,0,0,0,0,0,0,0,0,0,
16.84619, 17:33:04.217,0,0,0,0,0,0,0,0,0,
16.88642, 17:33:04.257,0,0,0,0,0,0,0,0,0,
16.9318, 17:33:04.303,0,0,0,0,0,0,0,0,0,
16.97318, 17:33:04.344,0,0,0,0,0,0,0,0,0,
17.01325, 17:33:04.385,0,0,0,0,0,0,0,0,0,
17.05402, 17:33:04.426,0,0,0,0,0,0,0,0,0,
17.09036, 17:33:04.462,0,0,0,0,0,0,0,0,0,
17.13243, 17:33:04.504,0,0,0,0,0,0,0,0,0,
17.17576, 17:33:04.547,0,0,0,0,0,0,0,0,0,
17.21841, 17:33:04.590,0,0,0,0,0,0,0,0,0,
17.27717, 17:33:04.649,0,0,0,0,0,0,0,0,0,
17.31911, 17:33:04.689,0,0,0,0,0,0,0,0,0,
Elapsed_Time, System_Time, Euler_Roll, Euler_Pitch, Euler_Yaw, Gyro_Roll, Gyro_Pitch, Gyro_Yaw, Accel_x, Accel_y, Accel_z
0.02, 17:34:57.068,0,0,0,0,0,0,0,0,0,
0.04, 17:34:57.308,0,0,0,0,0,0,0,0,0,
0.3733333, 17:34:57.897,0,0,0,0,0,0,0,0,0,
0.4608048, 17:34:57.976,0,0,0,0,0,0,0,0,0,
0.5224386, 17:34:58.033,0,0,0,0,0,0,0,0,0,
0.5635566, 17:34:58.074,0,0,0,0,0,0,0,0,0,
0.6582263, 17:34:58.170,0,0,0,0,0,0,0,0,0,
0.6980982, 17:34:58.208,0,0,0,0,0,0,0,0,0,
0.7375707, 17:34:58.248,0,0,0,0,0,0,0,0,0,
0.7784131, 17:34:58.288,0,0,0,0,0,0,0,0,0,
0.8140749, 17:34:58.324,0,0,0,0,0,0,0,0,0,
0.8524568, 17:34:58.362,0,0,0,0,0,0,0,0,0,
0.8890174, 17:34:58.399,0,0,0,0,0,0,0,0,0,
0.9276421, 17:34:58.437,0,0,0,0,0,0,0,0,0,
0.9634462, 17:34:58.474,0,0,0,0,0,0,0,0,0,
1.011696, 17:34:58.522,0,0,0,0,0,0,0,0,0,
1.067938, 17:34:58.579,0,0,0,0,0,0,0,0,0,
1.120932, 17:34:58.631,0,0,0,0,0,0,0,0,0,
1.155263, 17:34:58.665,0,0,0,0,0,0,0,0,0,
1.189814, 17:34:58.700,0,0,0,0,0,0,0,0,0,
1.227638, 17:34:58.739,0,0,0,0,0,0,0,0,0,
1.273428, 17:34:58.784,0,0,0,0,0,0,0,0,0,
1.306615, 17:34:58.817,0,0,0,0,0,0,0,0,0,
1.351556, 17:34:58.861,0,0,0,0,0,0,0,0,0,
1.38771, 17:34:58.898,0,0,0,0,0,0,0,0,0,
1.428384, 17:34:58.938,0,0,0,0,0,0,0,0,0,
1.514302, 17:34:59.025,0,0,0,0,0,0,0,0,0,
1.553261, 17:34:59.063,0,0,0,0,0,0,0,0,0,
1.59092, 17:34:59.165,0,0,0,0,0,0,0,0,0,
1.688386, 17:34:59.200,0,0,0,0,0,0,0,0,0,
1.768527, 17:34:59.281,0,0,0,0,0,0,0,0,0,
1.942215, 17:34:59.461,0,0,0,0,0,0,0,0,0,
1.991886, 17:34:59.503,0,0,0,0,0,0,0,0,0,
2.087691, 17:34:59.601,0,0,0,0,0,0,0,0,0,
2.19518, 17:34:59.711,0,0,0,0,0,0,0,0,0,
2.251626, 17:34:59.763,0,0,0,0,0,0,0,0,0,
2.29089, 17:34:59.801,0,0,0,0,0,0,0,0,0,
2.3266, 17:34:59.837,0,0,0,0,0,0,0,0,0,
2.360832, 17:34:59.871,0,0,0,0,0,0,0,0,0,
2.397594, 17:34:59.906,0,0,0,0,0,0,0,0,0,
2.435564, 17:34:59.946,0,0,0,0,0,0,0,0,0,
2.471772, 17:34:59.981,0,0,0,0,0,0,0,0,0,
2.505484, 17:35:00.016,0,0,0,0,0,0,0,0,0,
2.543441, 17:35:00.054,0,0,0,0,0,0,0,0,0,
2.583478, 17:35:00.095,0,0,0,0,0,0,0,0,0,
2.627413, 17:35:00.139,0,0,0,0,0,0,0,0,0,
2.666625, 17:35:00.177,0,0,0,0,0,0,0,0,0,
2.700706, 17:35:00.211,0,0,0,0,0,0,0,0,0,
2.738588, 17:35:00.248,0,0,0,0,0,0,0,0,0,
2.77236, 17:35:00.281,0,0,0,0,0,0,0,0,0,
2.809268, 17:35:00.320,0,0,0,0,0,0,0,0,0,
2.844839, 17:35:00.356,0,0,0,0,0,0,0,0,0,
2.885753, 17:35:00.396,0,0,0,0,0,0,0,0,0,
2.922739, 17:35:00.433,0,0,0,0,0,0,0,0,0,
2.96134, 17:35:00.471,0,0,0,0,0,0,0,0,0,
2.995271, 17:35:00.505,0,0,0,0,0,0,0,0,0,
3.033042, 17:35:00.543,0,0,0,0,0,0,0,0,0,
3.075248, 17:35:00.586,0,0,0,0,0,0,0,0,0,
3.116028, 17:35:00.626,0,0,0,0,0,0,0,0,0,
3.153509, 17:35:00.665,0,0,0,0,0,0,0,0,0,
3.188117, 17:35:00.699,0,0,0,0,0,0,0,0,0,
3.221531, 17:35:00.732,0,0,0,0,0,0,0,0,0,
3.261941, 17:35:00.773,0,0,0,0,0,0,0,0,0,
3.303404, 17:35:00.814,0,0,0,0,0,0,0,0,0,
3.350165, 17:35:00.860,0,0,0,0,0,0,0,0,0,
3.386832, 17:35:00.899,0,0,0,0,0,0,0,0,0,
3.442043, 17:35:00.953,0,0,0,0,0,0,0,0,0,
3.482906, 17:35:00.993,0,0,0,0,0,0,0,0,0,
3.520594, 17:35:01.030,0,0,0,0,0,0,0,0,0,
3.559936, 17:35:01.069,0,0,0,0,0,0,0,0,0,
3.593177, 17:35:01.103,0,0,0,0,0,0,0,0,0,
3.635184, 17:35:01.145,0,0,0,0,0,0,0,0,0,
3.710278, 17:35:01.223,0,0,0,0,0,0,0,0,0,
3.745603, 17:35:01.256,0,0,0,0,0,0,0,0,0,
3.784831, 17:35:01.295,0,0,0,0,0,0,0,0,0,
3.820782, 17:35:01.331,0,0,0,0,0,0,0,0,0,
3.856014, 17:35:01.366,0,0,0,0,0,0,0,0,0,
3.894205, 17:35:01.405,0,0,0,0,0,0,0,0,0,
3.935188, 17:35:01.446,0,0,0,0,0,0,0,0,0,
3.975452, 17:35:01.485,0,0,0,0,0,0,0,0,0,
4.015224, 17:35:01.525,0,0,0,0,0,0,0,0,0,
4.049785, 17:35:01.560,0,0,0,0,0,0,0,0,0,
4.085635, 17:35:01.597,0,0,0,0,0,0,0,0,0,
4.12708, 17:35:01.637,0,0,0,0,0,0,0,0,0,
4.16504, 17:35:01.675,0,0,0,0,0,0,0,0,0,
4.199312, 17:35:01.708,0,0,0,0,0,0,0,0,0,
4.235169, 17:35:01.746,0,0,0,0,0,0,0,0,0,
4.272446, 17:35:01.784,0,0,0,0,0,0,0,0,0,
4.311941, 17:35:01.823,0,0,0,0,0,0,0,0,0,
4.352044, 17:35:01.863,0,0,0,0,0,0,0,0,0,
4.387117, 17:35:01.897,0,0,0,0,0,0,0,0,0,
4.429195, 17:35:01.939,0,0,0,0,0,0,0,0,0,
4.473791, 17:35:01.984,0,0,0,0,0,0,0,0,0,
4.516139, 17:35:02.027,0,0,0,0,0,0,0,0,0,
4.560836, 17:35:02.074,0,0,0,0,0,0,0,0,0,
4.607776, 17:35:02.118,0,0,0,0,0,0,0,0,0,
4.651413, 17:35:02.162,0,0,0,0,0,0,0,0,0,
4.689404, 17:35:02.199,0,0,0,0,0,0,0,0,0,
4.722632, 17:35:02.233,0,0,0,0,0,0,0,0,0,
4.762172, 17:35:02.272,0,0,0,0,0,0,0,0,0,
4.804922, 17:35:02.315,0,0,0,0,0,0,0,0,0,
4.843877, 17:35:02.354,0,0,0,0,0,0,0,0,0,
4.879049, 17:35:02.389,0,0,0,0,0,0,0,0,0,
4.920471, 17:35:02.432,0,0,0,0,0,0,0,0,0,
4.961617, 17:35:02.471,0,0,0,0,0,0,0,0,0,
5.002511, 17:35:02.513,0,0,0,0,0,0,0,0,0,
5.037242, 17:35:02.546,0,0,0,0,0,0,0,0,0,
5.071272, 17:35:02.581,0,0,0,0,0,0,0,0,0,
5.109153, 17:35:02.619,0,0,0,0,0,0,0,0,0,
5.149145, 17:35:02.659,0,0,0,0,0,0,0,0,0,
5.182372, 17:35:02.692,0,0,0,0,0,0,0,0,0,
5.218694, 17:35:02.729,0,0,0,0,0,0,0,0,0,
5.25684, 17:35:02.768,0,0,0,0,0,0,0,0,0,
5.29812, 17:35:02.808,0,0,0,0,0,0,0,0,0,
5.338464, 17:35:02.848,0,0,0,0,0,0,0,0,0,
5.377425, 17:35:02.888,0,0,0,0,0,0,0,0,0,
5.415092, 17:35:02.924,0,0,0,0,0,0,0,0,0,
5.460689, 17:35:02.972,0,0,0,0,0,0,0,0,0,
5.50238, 17:35:03.012,0,0,0,0,0,0,0,0,0,
5.538254, 17:35:03.048,0,0,0,0,0,0,0,0,0,
5.574628, 17:35:03.085,0,0,0,0,0,0,0,0,0,
5.615202, 17:35:03.125,0,0,0,0,0,0,0,0,0,
5.65516, 17:35:03.166,0,0,0,0,0,0,0,0,0,
5.696577, 17:35:03.207,0,0,0,0,0,0,0,0,0,
5.738695, 17:35:03.250,0,0,0,0,0,0,0,0,0,
5.784142, 17:35:03.295,0,0,0,0,0,0,0,0,0,
5.826325, 17:35:03.336,0,0,0,0,0,0,0,0,0,
5.859216, 17:35:03.368,0,0,0,0,0,0,0,0,0,
5.896139, 17:35:03.406,0,0,0,0,0,0,0,0,0,
5.938242, 17:35:03.448,0,0,0,0,0,0,0,0,0,
5.976284, 17:35:03.487,0,0,0,0,0,0,0,0,0,
6.012585, 17:35:03.522,0,0,0,0,0,0,0,0,0,
6.0497, 17:35:03.561,0,0,0,0,0,0,0,0,0,
6.088225, 17:35:03.600,0,0,0,0,0,0,0,0,0,
6.130766, 17:35:03.641,0,0,0,0,0,0,0,0,0,
6.165676, 17:35:03.675,0,0,0,0,0,0,0,0,0,
6.202466, 17:35:03.713,0,0,0,0,0,0,0,0,0,
6.240937, 17:35:03.751,0,0,0,0,0,0,0,0,0,
6.280616, 17:35:03.790,0,0,0,0,0,0,0,0,0,
6.314711, 17:35:03.824,0,0,0,0,0,0,0,0,0,
6.353272, 17:35:03.864,0,0,0,0,0,0,0,0,0,
6.390091, 17:35:03.901,0,0,0,0,0,0,0,0,0,
6.431722, 17:35:03.942,0,0,0,0,0,0,0,0,0,
6.466329, 17:35:03.977,0,0,0,0,0,0,0,0,0,
6.50423, 17:35:04.015,0,0,0,0,0,0,0,0,0,
6.54568, 17:35:04.055,0,0,0,0,0,0,0,0,0,
6.584617, 17:35:04.095,0,0,0,0,0,0,0,0,0,
6.618099, 17:35:04.127,0,0,0,0,0,0,0,0,0,
6.66033, 17:35:04.171,0,0,0,0,0,0,0,0,0,
6.701855, 17:35:04.214,0,0,0,0,0,0,0,0,0,
6.747394, 17:35:04.259,0,0,0,0,0,0,0,0,0,
6.78381, 17:35:04.294,0,0,0,0,0,0,0,0,0,
6.821983, 17:35:04.333,0,0,0,0,0,0,0,0,0,
6.866897, 17:35:04.378,0,0,0,0,0,0,0,0,0,
6.921469, 17:35:04.433,0,0,0,0,0,0,0,0,0,
6.962212, 17:35:04.472,0,0,0,0,0,0,0,0,0,
7.001653, 17:35:04.513,0,0,0,0,0,0,0,0,0,
7.041429, 17:35:04.552,0,0,0,0,0,0,0,0,0,
7.081621, 17:35:04.591,0,0,0,0,0,0,0,0,0,
7.122986, 17:35:04.632,0,0,0,0,0,0,0,0,0,
7.16346, 17:35:04.672,0,0,0,0,0,0,0,0,0,
7.200624, 17:35:04.710,0,0,0,0,0,0,0,0,0,
7.237681, 17:35:04.747,0,0,0,0,0,0,0,0,0,
7.272997, 17:35:04.783,0,0,0,0,0,0,0,0,0,
7.308585, 17:35:04.819,0,0,0,0,0,0,0,0,0,
7.364797, 17:35:04.877,0,0,0,0,0,0,0,0,0,
7.409316, 17:35:04.919,0,0,0,0,0,0,0,0,0,
7.448813, 17:35:04.959,0,0,0,0,0,0,0,0,0,
7.491304, 17:35:05.002,0,0,0,0,0,0,0,0,0,
7.528161, 17:35:05.038,0,0,0,0,0,0,0,0,0,
7.570944, 17:35:05.081,0,0,0,0,0,0,0,0,0,
7.612392, 17:35:05.122,0,0,0,0,0,0,0,0,0,
7.649702, 17:35:05.160,0,0,0,0,0,0,0,0,0,
7.686391, 17:35:05.197,0,0,0,0,0,0,0,0,0,
7.723854, 17:35:05.234,0,0,0,0,0,0,0,0,0,
7.760763, 17:35:05.271,0,0,0,0,0,0,0,0,0,
7.798429, 17:35:05.308,0,0,0,0,0,0,0,0,0,
7.833125, 17:35:05.342,0,0,0,0,0,0,0,0,0,
7.866131, 17:35:05.375,0,0,0,0,0,0,0,0,0,
7.902, 17:35:05.411,0,0,0,0,0,0,0,0,0,
7.938883, 17:35:05.448,0,0,0,0,0,0,0,0,0,
7.973302, 17:35:05.484,0,0,0,0,0,0,0,0,0,
8.015222, 17:35:05.526,0,0,0,0,0,0,0,0,0,
8.056116, 17:35:05.567,0,0,0,0,0,0,0,0,0,
8.106923, 17:35:05.618,0,0,0,0,0,0,0,0,0,
8.160204, 17:35:05.670,0,0,0,0,0,0,0,0,0,
8.199774, 17:35:05.708,0,0,0,0,0,0,0,0,0,
8.234091, 17:35:05.744,0,0,0,0,0,0,0,0,0,
8.272739, 17:35:05.782,0,0,0,0,0,0,0,0,0,
8.311318, 17:35:05.822,0,0,0,0,0,0,0,0,0,
8.345347, 17:35:05.855,0,0,0,0,0,0,0,0,0,
8.384791, 17:35:05.896,0,0,0,0,0,0,0,0,0,
8.426669, 17:35:05.936,0,0,0,0,0,0,0,0,0,
8.467119, 17:35:05.976,0,0,0,0,0,0,0,0,0,
8.503204, 17:35:06.013,0,0,0,0,0,0,0,0,0,
8.539279, 17:35:06.048,0,0,0,0,0,0,0,0,0,
8.581583, 17:35:06.093,0,0,0,0,0,0,0,0,0,
8.619251, 17:35:06.128,0,0,0,0,0,0,0,0,0,
8.654057, 17:35:06.165,0,0,0,0,0,0,0,0,0,
8.691003, 17:35:06.203,0,0,0,0,0,0,0,0,0,
8.731246, 17:35:06.240,0,0,0,0,0,0,0,0,0,
8.770227, 17:35:06.280,0,0,0,0,0,0,0,0,0,
8.806565, 17:35:06.317,0,0,0,0,0,0,0,0,0,
8.842434, 17:35:06.353,0,0,0,0,0,0,0,0,0,
8.885029, 17:35:06.396,0,0,0,0,0,0,0,0,0,
8.928862, 17:35:06.440,0,0,0,0,0,0,0,0,0,
8.973057, 17:35:06.484,0,0,0,0,0,0,0,0,0,
9.011316, 17:35:06.522,0,0,0,0,0,0,0,0,0,
9.052128, 17:35:06.562,0,0,0,0,0,0,0,0,0,
9.09121, 17:35:06.601,0,0,0,0,0,0,0,0,0,
9.127665, 17:35:06.637,0,0,0,0,0,0,0,0,0,
9.163385, 17:35:06.674,0,0,0,0,0,0,0,0,0,
9.204874, 17:35:06.716,0,0,0,0,0,0,0,0,0,
9.24506, 17:35:06.755,0,0,0,0,0,0,0,0,0,
9.281312, 17:35:06.792,0,0,0,0,0,0,0,0,0,
9.320459, 17:35:06.832,0,0,0,0,0,0,0,0,0,
9.371292, 17:35:06.882,0,0,0,0,0,0,0,0,0,
9.412673, 17:35:06.924,0,0,0,0,0,0,0,0,0,
9.449131, 17:35:06.959,0,0,0,0,0,0,0,0,0,
9.485535, 17:35:06.995,0,0,0,0,0,0,0,0,0,
9.527684, 17:35:07.039,0,0,0,0,0,0,0,0,0,
9.56798, 17:35:07.078,0,0,0,0,0,0,0,0,0,
9.601737, 17:35:07.113,0,0,0,0,0,0,0,0,0,
9.639186, 17:35:07.149,0,0,0,0,0,0,0,0,0,
9.676349, 17:35:07.186,0,0,0,0,0,0,0,0,0,
9.714629, 17:35:07.224,0,0,0,0,0,0,0,0,0,
9.750116, 17:35:07.260,0,0,0,0,0,0,0,0,0,
9.786262, 17:35:07.297,0,0,0,0,0,0,0,0,0,
9.821196, 17:35:07.332,0,0,0,0,0,0,0,0,0,
9.861955, 17:35:07.372,0,0,0,0,0,0,0,0,0,
9.900088, 17:35:07.411,0,0,0,0,0,0,0,0,0,
9.93596, 17:35:07.445,0,0,0,0,0,0,0,0,0,
9.971363, 17:35:07.481,0,0,0,0,0,0,0,0,0,
10.01072, 17:35:07.520,0,0,0,0,0,0,0,0,0,
10.05111, 17:35:07.562,0,0,0,0,0,0,0,0,0,
10.08779, 17:35:07.598,0,0,0,0,0,0,0,0,0,
10.12646, 17:35:07.637,0,0,0,0,0,0,0,0,0,
10.16715, 17:35:07.678,0,0,0,0,0,0,0,0,0,
10.20607, 17:35:07.717,0,0,0,0,0,0,0,0,0,
10.24024, 17:35:07.751,0,0,0,0,0,0,0,0,0,
10.27732, 17:35:07.787,0,0,0,0,0,0,0,0,0,
10.3169, 17:35:07.827,0,0,0,0,0,0,0,0,0,
10.3569, 17:35:07.867,0,0,0,0,0,0,0,0,0,
10.39269, 17:35:07.903,0,0,0,0,0,0,0,0,0,
10.43455, 17:35:07.945,0,0,0,0,0,0,0,0,0,
10.48027, 17:35:07.991,0,0,0,0,0,0,0,0,0,
10.53622, 17:35:08.047,0,0,0,0,0,0,0,0,0,
10.57295, 17:35:08.082,0,0,0,0,0,0,0,0,0,
10.6087, 17:35:08.119,0,0,0,0,0,0,0,0,0,
10.65229, 17:35:08.162,0,0,0,0,0,0,0,0,0,
10.69102, 17:35:08.200,0,0,0,0,0,0,0,0,0,
10.72607, 17:35:08.235,0,0,0,0,0,0,0,0,0,
10.75985, 17:35:08.268,0,0,0,0,0,0,0,0,0,
10.79594, 17:35:08.305,0,0,0,0,0,0,0,0,0,
10.8346, 17:35:08.345,0,0,0,0,0,0,0,0,0,
10.86987, 17:35:08.381,0,0,0,0,0,0,0,0,0,
10.90454, 17:35:08.415,0,0,0,0,0,0,0,0,0,
10.94065, 17:35:08.451,0,0,0,0,0,0,0,0,0,
10.98072, 17:35:08.492,0,0,0,0,0,0,0,0,0,
11.01977, 17:35:08.529,0,0,0,0,0,0,0,0,0,
11.053, 17:35:08.564,0,0,0,0,0,0,0,0,0,
11.08696, 17:35:08.598,0,0,0,0,0,0,0,0,0,
11.1221, 17:35:08.633,0,0,0,0,0,0,0,0,0,
11.16576, 17:35:08.677,0,0,0,0,0,0,0,0,0,
11.20441, 17:35:08.715,0,0,0,0,0,0,0,0,0,
11.2386, 17:35:08.748,0,0,0,0,0,0,0,0,0,
11.27297, 17:35:08.784,0,0,0,0,0,0,0,0,0,
11.31466, 17:35:08.824,0,0,0,0,0,0,0,0,0,
11.35281, 17:35:08.864,0,0,0,0,0,0,0,0,0,
11.3917, 17:35:08.901,0,0,0,0,0,0,0,0,0,
11.42922, 17:35:08.939,0,0,0,0,0,0,0,0,0,
11.46946, 17:35:08.980,0,0,0,0,0,0,0,0,0,
11.50701, 17:35:09.017,0,0,0,0,0,0,0,0,0,
11.54346, 17:35:09.054,0,0,0,0,0,0,0,0,0,
11.57837, 17:35:09.088,0,0,0,0,0,0,0,0,0,
11.62188, 17:35:09.134,0,0,0,0,0,0,0,0,0,
11.6709, 17:35:09.182,0,0,0,0,0,0,0,0,0,
11.71449, 17:35:09.224,0,0,0,0,0,0,0,0,0,
11.75128, 17:35:09.262,0,0,0,0,0,0,0,0,0,
11.78702, 17:35:09.298,0,0,0,0,0,0,0,0,0,
11.82813, 17:35:09.338,0,0,0,0,0,0,0,0,0,
11.87099, 17:35:09.381,0,0,0,0,0,0,0,0,0,
11.90559, 17:35:09.416,0,0,0,0,0,0,0,0,0,
11.94088, 17:35:09.451,0,0,0,0,0,0,0,0,0,
11.97978, 17:35:09.489,0,0,0,0,0,0,0,0,0,
12.01946, 17:35:09.530,0,0,0,0,0,0,0,0,0,
12.05503, 17:35:09.565,0,0,0,0,0,0,0,0,0,
12.0886, 17:35:09.599,0,0,0,0,0,0,0,0,0,
12.12487, 17:35:09.635,0,0,0,0,0,0,0,0,0,
12.16308, 17:35:09.673,0,0,0,0,0,0,0,0,0,
12.20197, 17:35:09.712,0,0,0,0,0,0,0,0,0,
12.236, 17:35:09.745,0,0,0,0,0,0,0,0,0,
12.27349, 17:35:09.784,0,0,0,0,0,0,0,0,0,
12.30925, 17:35:09.819,0,0,0,0,0,0,0,0,0,
12.34697, 17:35:09.857,0,0,0,0,0,0,0,0,0,
12.38337, 17:35:09.893,0,0,0,0,0,0,0,0,0,
12.41703, 17:35:09.926,0,0,0,0,0,0,0,0,0,
12.45112, 17:35:09.961,0,0,0,0,0,0,0,0,0,
12.48959, 17:35:10.000,0,0,0,0,0,0,0,0,0,
12.52881, 17:35:10.039,0,0,0,0,0,0,0,0,0,
12.56914, 17:35:10.080,0,0,0,0,0,0,0,0,0,
12.60648, 17:35:10.117,0,0,0,0,0,0,0,0,0,
12.64314, 17:35:10.153,0,0,0,0,0,0,0,0,0,
12.68289, 17:35:10.193,0,0,0,0,0,0,0,0,0,
12.72412, 17:35:10.234,0,0,0,0,0,0,0,0,0,
12.76117, 17:35:10.273,0,0,0,0,0,0,0,0,0,
12.80239, 17:35:10.315,0,0,0,0,0,0,0,0,0,
12.85313, 17:35:10.364,0,0,0,0,0,0,0,0,0,
12.89266, 17:35:10.403,0,0,0,0,0,0,0,0,0,
12.93234, 17:35:10.443,0,0,0,0,0,0,0,0,0,
12.9666, 17:35:10.476,0,0,0,0,0,0,0,0,0,
13.00553, 17:35:10.515,0,0,0,0,0,0,0,0,0,
13.04333, 17:35:10.554,0,0,0,0,0,0,0,0,0,
13.08011, 17:35:10.590,0,0,0,0,0,0,0,0,0,
13.11483, 17:35:10.624,0,0,0,0,0,0,0,0,0,
13.15744, 17:35:10.668,0,0,0,0,0,0,0,0,0,
13.19445, 17:35:10.705,0,0,0,0,0,0,0,0,0,
13.23605, 17:35:10.748,0,0,0,0,0,0,0,0,0,
13.27148, 17:35:10.782,0,0,0,0,0,0,0,0,0,
13.30679, 17:35:10.817,0,0,0,0,0,0,0,0,0,
13.3424, 17:35:10.853,0,0,0,0,0,0,0,0,0,
13.38771, 17:35:10.899,0,0,0,0,0,0,0,0,0,
13.42735, 17:35:10.938,0,0,0,0,0,0,0,0,0,
13.46544, 17:35:10.976,0,0,0,0,0,0,0,0,0,
13.49947, 17:35:11.008,0,0,0,0,0,0,0,0,0,
13.53527, 17:35:11.046,0,0,0,0,0,0,0,0,0,
13.5758, 17:35:11.086,0,0,0,0,0,0,0,0,0,
13.61343, 17:35:11.123,0,0,0,0,0,0,0,0,0,
13.65229, 17:35:11.163,0,0,0,0,0,0,0,0,0,
13.69617, 17:35:11.205,0,0,0,0,0,0,0,0,0,
13.7355, 17:35:11.246,0,0,0,0,0,0,0,0,0,
13.76906, 17:35:11.280,0,0,0,0,0,0,0,0,0,
13.80332, 17:35:11.313,0,0,0,0,0,0,0,0,0,
13.84515, 17:35:11.356,0,0,0,0,0,0,0,0,0,
13.89024, 17:35:11.400,0,0,0,0,0,0,0,0,0,
13.92654, 17:35:11.437,0,0,0,0,0,0,0,0,0,
13.96579, 17:35:11.478,0,0,0,0,0,0,0,0,0,
14.01261, 17:35:11.529,0,0,0,0,0,0,0,0,0,
14.06214, 17:35:11.574,0,0,0,0,0,0,0,0,0,
14.09956, 17:35:11.609,0,0,0,0,0,0,0,0,0,
14.13433, 17:35:11.645,0,0,0,0,0,0,0,0,0,
14.17195, 17:35:11.681,0,0,0,0,0,0,0,0,0,
14.21278, 17:35:11.722,0,0,0,0,0,0,0,0,0,
14.24883, 17:35:11.758,0,0,0,0,0,0,0,0,0,
14.28329, 17:35:11.794,0,0,0,0,0,0,0,0,0,
14.32201, 17:35:11.832,0,0,0,0,0,0,0,0,0,
14.36568, 17:35:11.876,0,0,0,0,0,0,0,0,0,
14.40443, 17:35:11.914,0,0,0,0,0,0,0,0,0,
14.44069, 17:35:11.950,0,0,0,0,0,0,0,0,0,
14.47695, 17:35:11.986,0,0,0,0,0,0,0,0,0,
14.51405, 17:35:12.024,0,0,0,0,0,0,0,0,0,
14.55245, 17:35:12.063,0,0,0,0,0,0,0,0,0,
14.58703, 17:35:12.098,0,0,0,0,0,0,0,0,0,
14.62035, 17:35:12.130,0,0,0,0,0,0,0,0,0,
14.65672, 17:35:12.166,0,0,0,0,0,0,0,0,0,
14.69696, 17:35:12.206,0,0,0,0,0,0,0,0,0,
14.73835, 17:35:12.249,0,0,0,0,0,0,0,0,0,
14.77411, 17:35:12.284,0,0,0,0,0,0,0,0,0,
14.80741, 17:35:12.317,0,0,0,0,0,0,0,0,0,
14.84577, 17:35:12.355,0,0,0,0,0,0,0,0,0,
14.88251, 17:35:12.392,0,0,0,0,0,0,0,0,0,
14.92347, 17:35:12.434,0,0,0,0,0,0,0,0,0,
14.96026, 17:35:12.470,0,0,0,0,0,0,0,0,0,
14.99818, 17:35:12.507,0,0,0,0,0,0,0,0,0,
15.0348, 17:35:12.545,0,0,0,0,0,0,0,0,0,
15.07201, 17:35:12.582,0,0,0,0,0,0,0,0,0,
15.11095, 17:35:12.622,0,0,0,0,0,0,0,0,0,
15.15731, 17:35:12.669,0,0,0,0,0,0,0,0,0,
15.20329, 17:35:12.714,0,0,0,0,0,0,0,0,0,
15.24331, 17:35:12.754,0,0,0,0,0,0,0,0,0,
15.27897, 17:35:12.788,0,0,0,0,0,0,0,0,0,
15.32059, 17:35:12.833,0,0,0,0,0,0,0,0,0,
15.36265, 17:35:12.872,0,0,0,0,0,0,0,0,0,
15.39842, 17:35:12.908,0,0,0,0,0,0,0,0,0,
15.43229, 17:35:12.944,0,0,0,0,0,0,0,0,0,
15.47069, 17:35:12.981,0,0,0,0,0,0,0,0,0,
15.50891, 17:35:13.019,0,0,0,0,0,0,0,0,0,
15.54389, 17:35:13.054,0,0,0,0,0,0,0,0,0,
15.5804, 17:35:13.090,0,0,0,0,0,0,0,0,0,
15.61629, 17:35:13.125,0,0,0,0,0,0,0,0,0,
15.65299, 17:35:13.163,0,0,0,0,0,0,0,0,0,
15.69092, 17:35:13.201,0,0,0,0,0,0,0,0,0,
15.72491, 17:35:13.235,0,0,0,0,0,0,0,0,0,
15.75996, 17:35:13.270,0,0,0,0,0,0,0,0,0,
15.79729, 17:35:13.308,0,0,0,0,0,0,0,0,0,
15.83956, 17:35:13.350,0,0,0,0,0,0,0,0,0,
15.87832, 17:35:13.388,0,0,0,0,0,0,0,0,0,
15.91395, 17:35:13.424,0,0,0,0,0,0,0,0,0,
15.94982, 17:35:13.460,0,0,0,0,0,0,0,0,0,
15.9895, 17:35:13.499,0,0,0,0,0,0,0,0,0,
16.03024, 17:35:13.540,0,0,0,0,0,0,0,0,0,
16.06539, 17:35:13.576,0,0,0,0,0,0,0,0,0,
16.10043, 17:35:13.610,0,0,0,0,0,0,0,0,0,
16.13835, 17:35:13.648,0,0,0,0,0,0,0,0,0,
16.17604, 17:35:13.686,0,0,0,0,0,0,0,0,0,
16.21586, 17:35:13.726,0,0,0,0,0,0,0,0,0,
16.25509, 17:35:13.766,0,0,0,0,0,0,0,0,0,
16.29855, 17:35:13.809,0,0,0,0,0,0,0,0,0,
16.34948, 17:35:13.861,0,0,0,0,0,0,0,0,0,
16.38535, 17:35:13.896,0,0,0,0,0,0,0,0,0,
16.42208, 17:35:13.933,0,0,0,0,0,0,0,0,0,
16.46346, 17:35:13.974,0,0,0,0,0,0,0,0,0,
16.50076, 17:35:14.010,0,0,0,0,0,0,0,0,0,
16.53337, 17:35:14.042,0,0,0,0,0,0,0,0,0,
16.5695, 17:35:14.079,0,0,0,0,0,0,0,0,0,
16.60622, 17:35:14.117,0,0,0,0,0,0,0,0,0,
16.64584, 17:35:14.156,0,0,0,0,0,0,0,0,0,
16.68885, 17:35:14.199,0,0,0,0,0,0,0,0,0,
16.72305, 17:35:14.232,0,0,0,0,0,0,0,0,0,
16.7571, 17:35:14.267,0,0,0,0,0,0,0,0,0,
16.79386, 17:35:14.305,0,0,0,0,0,0,0,0,0,
16.8368, 17:35:14.347,0,0,0,0,0,0,0,0,0,
16.87281, 17:35:14.382,0,0,0,0,0,0,0,0,0,
16.90893, 17:35:14.419,0,0,0,0,0,0,0,0,0,
16.94852, 17:35:14.459,0,0,0,0,0,0,0,0,0,
16.99511, 17:35:14.505,0,0,0,0,0,0,0,0,0,
17.03109, 17:35:14.541,0,0,0,0,0,0,0,0,0,
17.06611, 17:35:14.576,0,0,0,0,0,0,0,0,0,
17.10751, 17:35:14.618,0,0,0,0,0,0,0,0,0,
17.14856, 17:35:14.659,0,0,0,0,0,0,0,0,0,
17.1843, 17:35:14.696,0,0,0,0,0,0,0,0,0,
17.22076, 17:35:14.731,0,0,0,0,0,0,0,0,0,
17.26388, 17:35:14.774,0,0,0,0,0,0,0,0,0,
17.30202, 17:35:14.813,0,0,0,0,0,0,0,0,0,
17.34325, 17:35:14.853,0,0,0,0,0,0,0,0,0,
17.38476, 17:35:14.895,0,0,0,0,0,0,0,0,0,
17.42902, 17:35:14.940,0,0,0,0,0,0,0,0,0,
17.47725, 17:35:14.989,0,0,0,0,0,0,0,0,0,
17.52033, 17:35:15.031,0,0,0,0,0,0,0,0,0,
17.56312, 17:35:15.074,0,0,0,0,0,0,0,0,0,
17.60294, 17:35:15.114,0,0,0,0,0,0,0,0,0,
