Elapsed_Time, System_Time, Euler_Roll, Euler_Pitch, Euler_Yaw, Gyro_Roll, Gyro_Pitch, Gyro_Yaw, Accel_x, Accel_y, Accel_z
0.02, 10:05:04.766,0,0,0,0,0,0,0,0,0,
0.04, 10:05:05.399,0,0,0,0,0,0,0,0,0,
0.3733333, 10:05:13.038,0,0,0,0,0,0,0,0,0,
0.7066667, 10:05:13.450,0,0,0,0,0,0,0,0,0,
0.8601098, 10:05:13.563,0,0,0,0,0,0,0,0,0,
0.9105896, 10:05:13.597,0,0,0,0,0,0,0,0,0,
0.9609643, 10:05:13.649,0,0,0,0,0,0,0,0,0,
1.000747, 10:05:13.688,0,0,0,0,0,0,0,0,0,
1.086154, 10:05:13.776,0,0,0,0,0,0,0,0,0,
1.1323, 10:05:13.821,0,0,0,0,0,0,0,0,0,
1.173559, 10:05:13.861,0,0,0,0,0,0,0,0,0,
1.256311, 10:05:13.946,0,0,0,0,0,0,0,0,0,
1.291649, 10:05:13.978,0,0,0,0,0,0,0,0,0,
1.331351, 10:05:14.018,0,0,0,0,0,0,0,0,0,
1.396124, 10:05:14.083,0,0,0,0,0,0,0,0,0,
1.441943, 10:05:14.129,0,0,0,0,0,0,0,0,0,
1.477599, 10:05:14.164,0,0,0,0,0,0,0,0,0,
1.810933, 10:05:15.012,0,0,0,0,0,0,0,0,0,
1.86655, 10:05:15.052,0,0,0,0,0,0,0,0,0,
1.948673, 10:05:15.136,0,0,0,0,0,0,0,0,0,
2.030156, 10:05:15.217,0,0,0,0,0,0,0,0,0,
2.071326, 10:05:15.256,0,0,0,0,0,0,0,0,0,
2.111227, 10:05:15.295,0,0,0,0,0,0,0,0,0,
2.153986, 10:05:15.339,0,0,0,0,0,0,0,0,0,
2.186264, 10:05:15.371,0,0,0,0,0,0,0,0,0,
2.22169, 10:05:15.405,0,0,0,0,0,0,0,0,0,
2.329859, 10:05:15.518,0,0,0,0,0,0,0,0,0,
2.365545, 10:05:15.550,0,0,0,0,0,0,0,0,0,
2.426938, 10:05:15.858,0,0,0,0,0,0,0,0,0,
2.709901, 10:05:15.940,0,0,0,0,0,0,0,0,0,
3.043235, 10:05:16.501,0,0,0,0,0,0,0,0,0,
3.171059, 10:05:16.616,0,0,0,0,0,0,0,0,0,
3.210984, 10:05:16.654,0,0,0,0,0,0,0,0,0,
3.312127, 10:05:16.757,0,0,0,0,0,0,0,0,0,
3.418303, 10:05:16.864,0,0,0,0,0,0,0,0,0,
3.461213, 10:05:16.905,0,0,0,0,0,0,0,0,0,
3.503231, 10:05:16.946,0,0,0,0,0,0,0,0,0,
3.539651, 10:05:16.981,0,0,0,0,0,0,0,0,0,
3.585633, 10:05:17.029,0,0,0,0,0,0,0,0,0,
3.621814, 10:05:17.064,0,0,0,0,0,0,0,0,0,
3.655221, 10:05:17.095,0,0,0,0,0,0,0,0,0,
3.684693, 10:05:17.127,0,0,0,0,0,0,0,0,0,
3.722825, 10:05:17.164,0,0,0,0,0,0,0,0,0,
3.766069, 10:05:17.208,0,0,0,0,0,0,0,0,0,
3.802035, 10:05:17.245,0,0,0,0,0,0,0,0,0,
3.838781, 10:05:17.280,0,0,0,0,0,0,0,0,0,
3.867685, 10:05:17.310,0,0,0,0,0,0,0,0,0,
3.90064, 10:05:17.343,0,0,0,0,0,0,0,0,0,
3.931427, 10:05:17.371,0,0,0,0,0,0,0,0,0,
3.962559, 10:05:17.404,0,0,0,0,0,0,0,0,0,
3.99417, 10:05:17.434,0,0,0,0,0,0,0,0,0,
4.027812, 10:05:17.470,0,0,0,0,0,0,0,0,0,
4.063679, 10:05:17.505,0,0,0,0,0,0,0,0,0,
4.095246, 10:05:17.536,0,0,0,0,0,0,0,0,0,
4.13061, 10:05:17.574,0,0,0,0,0,0,0,0,0,
4.167542, 10:05:17.610,0,0,0,0,0,0,0,0,0,
4.199222, 10:05:17.640,0,0,0,0,0,0,0,0,0,
4.231293, 10:05:17.673,0,0,0,0,0,0,0,0,0,
4.270687, 10:05:17.714,0,0,0,0,0,0,0,0,0,
4.308378, 10:05:17.750,0,0,0,0,0,0,0,0,0,
4.343519, 10:05:17.785,0,0,0,0,0,0,0,0,0,
4.374634, 10:05:17.815,0,0,0,0,0,0,0,0,0,
4.40697, 10:05:17.849,0,0,0,0,0,0,0,0,0,
4.448405, 10:05:17.891,0,0,0,0,0,0,0,0,0,
4.484379, 10:05:17.926,0,0,0,0,0,0,0,0,0,
4.520778, 10:05:17.962,0,0,0,0,0,0,0,0,0,
4.55204, 10:05:17.992,0,0,0,0,0,0,0,0,0,
4.582353, 10:05:18.025,0,0,0,0,0,0,0,0,0,
4.614254, 10:05:18.054,0,0,0,0,0,0,0,0,0,
4.653658, 10:05:18.096,0,0,0,0,0,0,0,0,0,
4.692598, 10:05:18.136,0,0,0,0,0,0,0,0,0,
4.72922, 10:05:18.180,0,0,0,0,0,0,0,0,0,
4.772365, 10:05:18.214,0,0,0,0,0,0,0,0,0,
4.810112, 10:05:18.253,0,0,0,0,0,0,0,0,0,
4.864276, 10:05:18.308,0,0,0,0,0,0,0,0,0,
4.899515, 10:05:18.342,0,0,0,0,0,0,0,0,0,
4.931257, 10:05:18.372,0,0,0,0,0,0,0,0,0,
4.965554, 10:05:18.407,0,0,0,0,0,0,0,0,0,
5.010761, 10:05:18.453,0,0,0,0,0,0,0,0,0,
5.045556, 10:05:18.487,0,0,0,0,0,0,0,0,0,
5.079435, 10:05:18.521,0,0,0,0,0,0,0,0,0,
5.145444, 10:05:18.591,0,0,0,0,0,0,0,0,0,
5.205395, 10:05:18.648,0,0,0,0,0,0,0,0,0,
5.241942, 10:05:18.685,0,0,0,0,0,0,0,0,0,
5.276955, 10:05:18.717,0,0,0,0,0,0,0,0,0,
5.309977, 10:05:18.751,0,0,0,0,0,0,0,0,0,
5.39078, 10:05:18.834,0,0,0,0,0,0,0,0,0,
5.426017, 10:05:18.868,0,0,0,0,0,0,0,0,0,
5.460646, 10:05:18.903,0,0,0,0,0,0,0,0,0,
5.527413, 10:05:18.974,0,0,0,0,0,0,0,0,0,
5.570447, 10:05:19.013,0,0,0,0,0,0,0,0,0,
5.601676, 10:05:19.047,0,0,0,0,0,0,0,0,0,
5.639341, 10:05:19.080,0,0,0,0,0,0,0,0,0,
5.681515, 10:05:19.124,0,0,0,0,0,0,0,0,0,
5.718046, 10:05:19.159,0,0,0,0,0,0,0,0,0,
5.748766, 10:05:19.192,0,0,0,0,0,0,0,0,0,
5.784534, 10:05:19.227,0,0,0,0,0,0,0,0,0,
5.817522, 10:05:19.261,0,0,0,0,0,0,0,0,0,
5.857385, 10:05:19.300,0,0,0,0,0,0,0,0,0,
5.896594, 10:05:19.346,0,0,0,0,0,0,0,0,0,
5.939464, 10:05:19.382,0,0,0,0,0,0,0,0,0,
5.972059, 10:05:19.414,0,0,0,0,0,0,0,0,0,
6.00697, 10:05:19.448,0,0,0,0,0,0,0,0,0,
6.042733, 10:05:19.484,0,0,0,0,0,0,0,0,0,
6.075672, 10:05:19.517,0,0,0,0,0,0,0,0,0,
6.108658, 10:05:19.552,0,0,0,0,0,0,0,0,0,
6.14544, 10:05:19.588,0,0,0,0,0,0,0,0,0,
6.182405, 10:05:19.625,0,0,0,0,0,0,0,0,0,
6.218606, 10:05:19.660,0,0,0,0,0,0,0,0,0,
6.250569, 10:05:19.694,0,0,0,0,0,0,0,0,0,
6.287271, 10:05:19.729,0,0,0,0,0,0,0,0,0,
6.319014, 10:05:19.760,0,0,0,0,0,0,0,0,0,
6.352704, 10:05:19.794,0,0,0,0,0,0,0,0,0,
6.39206, 10:05:19.834,0,0,0,0,0,0,0,0,0,
6.429212, 10:05:19.872,0,0,0,0,0,0,0,0,0,
6.463043, 10:05:19.905,0,0,0,0,0,0,0,0,0,
6.496327, 10:05:19.937,0,0,0,0,0,0,0,0,0,
6.530601, 10:05:19.972,0,0,0,0,0,0,0,0,0,
6.564676, 10:05:20.008,0,0,0,0,0,0,0,0,0,
6.59848, 10:05:20.039,0,0,0,0,0,0,0,0,0,
6.636117, 10:05:20.080,0,0,0,0,0,0,0,0,0,
6.675379, 10:05:20.119,0,0,0,0,0,0,0,0,0,
6.712287, 10:05:20.154,0,0,0,0,0,0,0,0,0,
6.746336, 10:05:20.187,0,0,0,0,0,0,0,0,0,
6.778642, 10:05:20.219,0,0,0,0,0,0,0,0,0,
6.810471, 10:05:20.252,0,0,0,0,0,0,0,0,0,
6.846059, 10:05:20.288,0,0,0,0,0,0,0,0,0,
6.88225, 10:05:20.325,0,0,0,0,0,0,0,0,0,
6.920748, 10:05:20.364,0,0,0,0,0,0,0,0,0,
6.95811, 10:05:20.399,0,0,0,0,0,0,0,0,0,
6.988643, 10:05:20.432,0,0,0,0,0,0,0,0,0,
7.02829, 10:05:20.472,0,0,0,0,0,0,0,0,0,
7.07797, 10:05:20.521,0,0,0,0,0,0,0,0,0,
7.139558, 10:05:20.585,0,0,0,0,0,0,0,0,0,
7.17558, 10:05:20.616,0,0,0,0,0,0,0,0,0,
7.208933, 10:05:20.650,0,0,0,0,0,0,0,0,0,
7.248777, 10:05:20.698,0,0,0,0,0,0,0,0,0,
7.291724, 10:05:20.733,0,0,0,0,0,0,0,0,0,
7.326169, 10:05:20.768,0,0,0,0,0,0,0,0,0,
7.364849, 10:05:20.806,0,0,0,0,0,0,0,0,0,
7.398948, 10:05:20.839,0,0,0,0,0,0,0,0,0,
7.431809, 10:05:20.873,0,0,0,0,0,0,0,0,0,
7.462186, 10:05:20.904,0,0,0,0,0,0,0,0,0,
7.497123, 10:05:20.938,0,0,0,0,0,0,0,0,0,
7.534779, 10:05:20.977,0,0,0,0,0,0,0,0,0,
7.569207, 10:05:21.010,0,0,0,0,0,0,0,0,0,
7.60329, 10:05:21.045,0,0,0,0,0,0,0,0,0,
7.637939, 10:05:21.078,0,0,0,0,0,0,0,0,0,
7.66784, 10:05:21.108,0,0,0,0,0,0,0,0,0,
7.70244, 10:05:21.143,0,0,0,0,0,0,0,0,0,
7.734963, 10:05:21.176,0,0,0,0,0,0,0,0,0,
7.767705, 10:05:21.209,0,0,0,0,0,0,0,0,0,
7.80152, 10:05:21.243,0,0,0,0,0,0,0,0,0,
7.836386, 10:05:21.277,0,0,0,0,0,0,0,0,0,
7.867438, 10:05:21.309,0,0,0,0,0,0,0,0,0,
7.902009, 10:05:21.343,0,0,0,0,0,0,0,0,0,
7.938106, 10:05:21.380,0,0,0,0,0,0,0,0,0,
7.974446, 10:05:21.416,0,0,0,0,0,0,0,0,0,
8.006397, 10:05:21.448,0,0,0,0,0,0,0,0,0,
8.039406, 10:05:21.481,0,0,0,0,0,0,0,0,0,
8.073701, 10:05:21.515,0,0,0,0,0,0,0,0,0,
8.109697, 10:05:21.551,0,0,0,0,0,0,0,0,0,
8.145063, 10:05:21.588,0,0,0,0,0,0,0,0,0,
8.180187, 10:05:21.625,0,0,0,0,0,0,0,0,0,
8.220419, 10:05:21.663,0,0,0,0,0,0,0,0,0,
8.279875, 10:05:21.722,0,0,0,0,0,0,0,0,0,
8.3154, 10:05:21.758,0,0,0,0,0,0,0,0,0,
8.353077, 10:05:21.795,0,0,0,0,0,0,0,0,0,
8.386464, 10:05:21.828,0,0,0,0,0,0,0,0,0,
8.421303, 10:05:21.863,0,0,0,0,0,0,0,0,0,
8.45419, 10:05:21.895,0,0,0,0,0,0,0,0,0,
8.493733, 10:05:21.936,0,0,0,0,0,0,0,0,0,
8.530927, 10:05:21.973,0,0,0,0,0,0,0,0,0,
8.56667, 10:05:22.009,0,0,0,0,0,0,0,0,0,
8.602093, 10:05:22.043,0,0,0,0,0,0,0,0,0,
8.63534, 10:05:22.075,0,0,0,0,0,0,0,0,0,
8.666532, 10:05:22.107,0,0,0,0,0,0,0,0,0,
8.697719, 10:05:22.138,0,0,0,0,0,0,0,0,0,
8.731025, 10:05:22.172,0,0,0,0,0,0,0,0,0,
8.764148, 10:05:22.206,0,0,0,0,0,0,0,0,0,
8.801147, 10:05:22.244,0,0,0,0,0,0,0,0,0,
8.83377, 10:05:22.275,0,0,0,0,0,0,0,0,0,
8.866958, 10:05:22.310,0,0,0,0,0,0,0,0,0,
8.899206, 10:05:22.340,0,0,0,0,0,0,0,0,0,
8.932666, 10:05:22.376,0,0,0,0,0,0,0,0,0,
8.968317, 10:05:22.410,0,0,0,0,0,0,0,0,0,
9.004721, 10:05:22.447,0,0,0,0,0,0,0,0,0,
9.038177, 10:05:22.479,0,0,0,0,0,0,0,0,0,
9.071744, 10:05:22.515,0,0,0,0,0,0,0,0,0,
9.112617, 10:05:22.555,0,0,0,0,0,0,0,0,0,
9.150135, 10:05:22.592,0,0,0,0,0,0,0,0,0,
9.184263, 10:05:22.626,0,0,0,0,0,0,0,0,0,
9.219886, 10:05:22.661,0,0,0,0,0,0,0,0,0,
9.252521, 10:05:22.695,0,0,0,0,0,0,0,0,0,
9.287175, 10:05:22.730,0,0,0,0,0,0,0,0,0,
9.3235, 10:05:22.765,0,0,0,0,0,0,0,0,0,
9.35542, 10:05:22.795,0,0,0,0,0,0,0,0,0,
9.384814, 10:05:22.826,0,0,0,0,0,0,0,0,0,
9.419726, 10:05:22.860,0,0,0,0,0,0,0,0,0,
9.451911, 10:05:22.893,0,0,0,0,0,0,0,0,0,
9.488126, 10:05:22.930,0,0,0,0,0,0,0,0,0,
9.522607, 10:05:22.965,0,0,0,0,0,0,0,0,0,
9.557084, 10:05:22.998,0,0,0,0,0,0,0,0,0,
9.591431, 10:05:23.033,0,0,0,0,0,0,0,0,0,
9.634608, 10:05:23.078,0,0,0,0,0,0,0,0,0,
9.675413, 10:05:23.122,0,0,0,0,0,0,0,0,0,
9.721218, 10:05:23.165,0,0,0,0,0,0,0,0,0,
9.753955, 10:05:23.196,0,0,0,0,0,0,0,0,0,
9.789429, 10:05:23.230,0,0,0,0,0,0,0,0,0,
9.832462, 10:05:23.275,0,0,0,0,0,0,0,0,0,
9.866859, 10:05:23.307,0,0,0,0,0,0,0,0,0,
9.901315, 10:05:23.342,0,0,0,0,0,0,0,0,0,
9.93181, 10:05:23.373,0,0,0,0,0,0,0,0,0,
9.965436, 10:05:23.407,0,0,0,0,0,0,0,0,0,
9.997622, 10:05:23.438,0,0,0,0,0,0,0,0,0,
10.02809, 10:05:23.470,0,0,0,0,0,0,0,0,0,
10.05974, 10:05:23.500,0,0,0,0,0,0,0,0,0,
10.09628, 10:05:23.539,0,0,0,0,0,0,0,0,0,
10.13348, 10:05:23.575,0,0,0,0,0,0,0,0,0,
10.16702, 10:05:23.608,0,0,0,0,0,0,0,0,0,
10.20015, 10:05:23.641,0,0,0,0,0,0,0,0,0,
10.23058, 10:05:23.671,0,0,0,0,0,0,0,0,0,
10.2625, 10:05:23.703,0,0,0,0,0,0,0,0,0,
10.30276, 10:05:23.744,0,0,0,0,0,0,0,0,0,
10.33987, 10:05:23.780,0,0,0,0,0,0,0,0,0,
10.36975, 10:05:23.811,0,0,0,0,0,0,0,0,0,
10.40185, 10:05:23.844,0,0,0,0,0,0,0,0,0,
10.43496, 10:05:23.875,0,0,0,0,0,0,0,0,0,
10.46955, 10:05:23.912,0,0,0,0,0,0,0,0,0,
10.50452, 10:05:23.945,0,0,0,0,0,0,0,0,0,
10.53551, 10:05:23.976,0,0,0,0,0,0,0,0,0,
10.56595, 10:05:24.008,0,0,0,0,0,0,0,0,0,
10.59786, 10:05:24.039,0,0,0,0,0,0,0,0,0,
10.62972, 10:05:24.072,0,0,0,0,0,0,0,0,0,
10.66599, 10:05:24.108,0,0,0,0,0,0,0,0,0,
10.70358, 10:05:24.145,0,0,0,0,0,0,0,0,0,
10.73609, 10:05:24.197,0,0,0,0,0,0,0,0,0,
10.79203, 10:05:24.235,0,0,0,0,0,0,0,0,0,
10.83358, 10:05:24.279,0,0,0,0,0,0,0,0,0,
10.88274, 10:05:24.325,0,0,0,0,0,0,0,0,0,
10.91931, 10:05:24.361,0,0,0,0,0,0,0,0,0,
10.95507, 10:05:24.396,0,0,0,0,0,0,0,0,0,
10.99028, 10:05:24.431,0,0,0,0,0,0,0,0,0,
11.02674, 10:05:24.468,0,0,0,0,0,0,0,0,0,
11.05906, 10:05:24.500,0,0,0,0,0,0,0,0,0,
11.0902, 10:05:24.532,0,0,0,0,0,0,0,0,0,
11.13047, 10:05:24.573,0,0,0,0,0,0,0,0,0,
11.16936, 10:05:24.610,0,0,0,0,0,0,0,0,0,
11.2036, 10:05:24.644,0,0,0,0,0,0,0,0,0,
11.23815, 10:05:24.679,0,0,0,0,0,0,0,0,0,
11.27152, 10:05:24.713,0,0,0,0,0,0,0,0,0,
11.30333, 10:05:24.745,0,0,0,0,0,0,0,0,0,
11.33735, 10:05:24.778,0,0,0,0,0,0,0,0,0,
11.37487, 10:05:24.816,0,0,0,0,0,0,0,0,0,
11.407, 10:05:24.849,0,0,0,0,0,0,0,0,0,
11.43846, 10:05:24.879,0,0,0,0,0,0,0,0,0,
11.49132, 10:05:24.934,0,0,0,0,0,0,0,0,0,
11.52626, 10:05:24.968,0,0,0,0,0,0,0,0,0,
11.56001, 10:05:25.001,0,0,0,0,0,0,0,0,0,
11.60103, 10:05:25.043,0,0,0,0,0,0,0,0,0,
11.63295, 10:05:25.074,0,0,0,0,0,0,0,0,0,
11.66544, 10:05:25.108,0,0,0,0,0,0,0,0,0,
11.69977, 10:05:25.141,0,0,0,0,0,0,0,0,0,
11.73224, 10:05:25.175,0,0,0,0,0,0,0,0,0,
11.76561, 10:05:25.207,0,0,0,0,0,0,0,0,0,
11.80182, 10:05:25.243,0,0,0,0,0,0,0,0,0,
11.83421, 10:05:25.275,0,0,0,0,0,0,0,0,0,
11.86698, 10:05:25.308,0,0,0,0,0,0,0,0,0,
11.89981, 10:05:25.341,0,0,0,0,0,0,0,0,0,
11.93361, 10:05:25.376,0,0,0,0,0,0,0,0,0,
11.97235, 10:05:25.416,0,0,0,0,0,0,0,0,0,
12.01411, 10:05:25.457,0,0,0,0,0,0,0,0,0,
12.05519, 10:05:25.497,0,0,0,0,0,0,0,0,0,
12.08791, 10:05:25.530,0,0,0,0,0,0,0,0,0,
12.12101, 10:05:25.562,0,0,0,0,0,0,0,0,0,
12.15564, 10:05:25.597,0,0,0,0,0,0,0,0,0,
12.19645, 10:05:25.638,0,0,0,0,0,0,0,0,0,
12.23487, 10:05:25.676,0,0,0,0,0,0,0,0,0,
12.27037, 10:05:25.711,0,0,0,0,0,0,0,0,0,
12.30075, 10:05:25.742,0,0,0,0,0,0,0,0,0,
12.33425, 10:05:25.775,0,0,0,0,0,0,0,0,0,
12.36508, 10:05:25.808,0,0,0,0,0,0,0,0,0,
12.39869, 10:05:25.839,0,0,0,0,0,0,0,0,0,
12.43477, 10:05:25.876,0,0,0,0,0,0,0,0,0,
12.46644, 10:05:25.908,0,0,0,0,0,0,0,0,0,
12.49891, 10:05:25.940,0,0,0,0,0,0,0,0,0,
12.54615, 10:05:25.990,0,0,0,0,0,0,0,0,0,
12.58257, 10:05:26.024,0,0,0,0,0,0,0,0,0,
12.6175, 10:05:26.057,0,0,0,0,0,0,0,0,0,
12.65217, 10:05:26.095,0,0,0,0,0,0,0,0,0,
12.69043, 10:05:26.131,0,0,0,0,0,0,0,0,0,
12.72941, 10:05:26.171,0,0,0,0,0,0,0,0,0,
12.76414, 10:05:26.205,0,0,0,0,0,0,0,0,0,
12.79794, 10:05:26.238,0,0,0,0,0,0,0,0,0,
12.82817, 10:05:26.270,0,0,0,0,0,0,0,0,0,
12.86222, 10:05:26.306,0,0,0,0,0,0,0,0,0,
12.89568, 10:05:26.337,0,0,0,0,0,0,0,0,0,
12.92884, 10:05:26.370,0,0,0,0,0,0,0,0,0,
12.96161, 10:05:26.403,0,0,0,0,0,0,0,0,0,
12.99306, 10:05:26.433,0,0,0,0,0,0,0,0,0,
13.02245, 10:05:26.464,0,0,0,0,0,0,0,0,0,
13.05553, 10:05:26.497,0,0,0,0,0,0,0,0,0,
13.09609, 10:05:26.539,0,0,0,0,0,0,0,0,0,
13.13868, 10:05:26.581,0,0,0,0,0,0,0,0,0,
13.18034, 10:05:26.624,0,0,0,0,0,0,0,0,0,
13.21662, 10:05:26.657,0,0,0,0,0,0,0,0,0,
13.25283, 10:05:26.694,0,0,0,0,0,0,0,0,0,
13.2858, 10:05:26.727,0,0,0,0,0,0,0,0,0,
13.32263, 10:05:26.764,0,0,0,0,0,0,0,0,0,
13.35528, 10:05:26.796,0,0,0,0,0,0,0,0,0,
13.38727, 10:05:26.829,0,0,0,0,0,0,0,0,0,
13.42226, 10:05:26.863,0,0,0,0,0,0,0,0,0,
13.45623, 10:05:26.897,0,0,0,0,0,0,0,0,0,
13.48846, 10:05:26.930,0,0,0,0,0,0,0,0,0,
13.52203, 10:05:26.964,0,0,0,0,0,0,0,0,0,
13.55523, 10:05:26.996,0,0,0,0,0,0,0,0,0,
13.58928, 10:05:27.030,0,0,0,0,0,0,0,0,0,
13.62207, 10:05:27.063,0,0,0,0,0,0,0,0,0,
13.65404, 10:05:27.094,0,0,0,0,0,0,0,0,0,
13.68591, 10:05:27.128,0,0,0,0,0,0,0,0,0,
13.72355, 10:05:27.166,0,0,0,0,0,0,0,0,0,
13.79502, 10:05:27.241,0,0,0,0,0,0,0,0,0,
13.86014, 10:05:27.307,0,0,0,0,0,0,0,0,0,
13.90433, 10:05:27.346,0,0,0,0,0,0,0,0,0,
13.93774, 10:05:27.378,0,0,0,0,0,0,0,0,0,
13.99476, 10:05:27.437,0,0,0,0,0,0,0,0,0,
14.03265, 10:05:27.475,0,0,0,0,0,0,0,0,0,
14.07505, 10:05:27.517,0,0,0,0,0,0,0,0,0,
14.1132, 10:05:27.558,0,0,0,0,0,0,0,0,0,
14.15411, 10:05:27.596,0,0,0,0,0,0,0,0,0,
14.19351, 10:05:27.635,0,0,0,0,0,0,0,0,0,
14.22943, 10:05:27.672,0,0,0,0,0,0,0,0,0,
14.26935, 10:05:27.712,0,0,0,0,0,0,0,0,0,
14.30688, 10:05:27.750,0,0,0,0,0,0,0,0,0,
14.35385, 10:05:27.795,0,0,0,0,0,0,0,0,0,
14.38972, 10:05:27.831,0,0,0,0,0,0,0,0,0,
14.42867, 10:05:27.869,0,0,0,0,0,0,0,0,0,
14.46181, 10:05:27.903,0,0,0,0,0,0,0,0,0,
14.49658, 10:05:27.936,0,0,0,0,0,0,0,0,0,
14.52894, 10:05:27.970,0,0,0,0,0,0,0,0,0,
14.56411, 10:05:28.005,0,0,0,0,0,0,0,0,0,
14.60208, 10:05:28.045,0,0,0,0,0,0,0,0,0,
14.64567, 10:05:28.087,0,0,0,0,0,0,0,0,0,
14.68216, 10:05:28.124,0,0,0,0,0,0,0,0,0,
14.71249, 10:05:28.153,0,0,0,0,0,0,0,0,0,
14.75219, 10:05:28.194,0,0,0,0,0,0,0,0,0,
14.79449, 10:05:28.235,0,0,0,0,0,0,0,0,0,
14.8332, 10:05:28.274,0,0,0,0,0,0,0,0,0,
14.8661, 10:05:28.307,0,0,0,0,0,0,0,0,0,
14.89703, 10:05:28.338,0,0,0,0,0,0,0,0,0,
14.92913, 10:05:28.372,0,0,0,0,0,0,0,0,0,
14.96305, 10:05:28.404,0,0,0,0,0,0,0,0,0,
14.99643, 10:05:28.438,0,0,0,0,0,0,0,0,0,
15.03057, 10:05:28.473,0,0,0,0,0,0,0,0,0,
15.06254, 10:05:28.504,0,0,0,0,0,0,0,0,0,
15.09741, 10:05:28.538,0,0,0,0,0,0,0,0,0,
15.13232, 10:05:28.574,0,0,0,0,0,0,0,0,0,
15.202, 10:05:28.646,0,0,0,0,0,0,0,0,0,
15.23797, 10:05:28.681,0,0,0,0,0,0,0,0,0,
15.27457, 10:05:28.717,0,0,0,0,0,0,0,0,0,
15.6079, 10:05:29.473,0,0,0,0,0,0,0,0,0,
15.6624, 10:05:29.511,0,0,0,0,0,0,0,0,0,
15.74269, 10:05:29.592,0,0,0,0,0,0,0,0,0,
15.82353, 10:05:29.673,0,0,0,0,0,0,0,0,0,
15.87124, 10:05:29.718,0,0,0,0,0,0,0,0,0,
15.91067, 10:05:29.758,0,0,0,0,0,0,0,0,0,
15.94359, 10:05:29.792,0,0,0,0,0,0,0,0,0,
15.9777, 10:05:29.824,0,0,0,0,0,0,0,0,0,
16.01503, 10:05:29.863,0,0,0,0,0,0,0,0,0,
16.05494, 10:05:29.903,0,0,0,0,0,0,0,0,0,
16.09466, 10:05:29.942,0,0,0,0,0,0,0,0,0,
16.12773, 10:05:29.974,0,0,0,0,0,0,0,0,0,
16.16056, 10:05:30.006,0,0,0,0,0,0,0,0,0,
16.19407, 10:05:30.039,0,0,0,0,0,0,0,0,0,
16.22339, 10:05:30.071,0,0,0,0,0,0,0,0,0,
16.26093, 10:05:30.107,0,0,0,0,0,0,0,0,0,
16.30447, 10:05:30.152,0,0,0,0,0,0,0,0,0,
16.34352, 10:05:30.191,0,0,0,0,0,0,0,0,0,
16.38604, 10:05:30.233,0,0,0,0,0,0,0,0,0,
16.42052, 10:05:30.267,0,0,0,0,0,0,0,0,0,
16.45614, 10:05:30.302,0,0,0,0,0,0,0,0,0,
16.48762, 10:05:30.334,0,0,0,0,0,0,0,0,0,
16.53538, 10:05:30.382,0,0,0,0,0,0,0,0,0,
16.56663, 10:05:30.413,0,0,0,0,0,0,0,0,0,
16.59884, 10:05:30.444,0,0,0,0,0,0,0,0,0,
16.63285, 10:05:30.480,0,0,0,0,0,0,0,0,0,
16.66897, 10:05:30.517,0,0,0,0,0,0,0,0,0,
16.70682, 10:05:30.554,0,0,0,0,0,0,0,0,0,
16.74775, 10:05:30.594,0,0,0,0,0,0,0,0,0,
16.78185, 10:05:30.628,0,0,0,0,0,0,0,0,0,
16.81391, 10:05:30.659,0,0,0,0,0,0,0,0,0,
16.84543, 10:05:30.692,0,0,0,0,0,0,0,0,0,
16.88048, 10:05:30.727,0,0,0,0,0,0,0,0,0,
16.91319, 10:05:30.759,0,0,0,0,0,0,0,0,0,
16.94965, 10:05:30.796,0,0,0,0,0,0,0,0,0,
16.98172, 10:05:30.829,0,0,0,0,0,0,0,0,0,
17.02802, 10:05:30.875,0,0,0,0,0,0,0,0,0,
17.06224, 10:05:30.908,0,0,0,0,0,0,0,0,0,
17.09827, 10:05:30.944,0,0,0,0,0,0,0,0,0,
17.1298, 10:05:30.976,0,0,0,0,0,0,0,0,0,
17.16695, 10:05:31.014,0,0,0,0,0,0,0,0,0,
17.20352, 10:05:31.050,0,0,0,0,0,0,0,0,0,
17.24418, 10:05:31.090,0,0,0,0,0,0,0,0,0,
17.27531, 10:05:31.122,0,0,0,0,0,0,0,0,0,
17.30493, 10:05:31.151,0,0,0,0,0,0,0,0,0,
17.3372, 10:05:31.184,0,0,0,0,0,0,0,0,0,
17.3795, 10:05:31.226,0,0,0,0,0,0,0,0,0,
17.41854, 10:05:31.265,0,0,0,0,0,0,0,0,0,
17.45367, 10:05:31.300,0,0,0,0,0,0,0,0,0,
17.49327, 10:05:31.341,0,0,0,0,0,0,0,0,0,
17.53483, 10:05:31.384,0,0,0,0,0,0,0,0,0,
17.5829, 10:05:31.432,0,0,0,0,0,0,0,0,0,
17.62487, 10:05:31.471,0,0,0,0,0,0,0,0,0,
17.65575, 10:05:31.501,0,0,0,0,0,0,0,0,0,
17.69007, 10:05:31.536,0,0,0,0,0,0,0,0,0,
17.72634, 10:05:31.573,0,0,0,0,0,0,0,0,0,
17.75954, 10:05:31.605,0,0,0,0,0,0,0,0,0,
17.7961, 10:05:31.642,0,0,0,0,0,0,0,0,0,
17.83994, 10:05:31.686,0,0,0,0,0,0,0,0,0,
17.8745, 10:05:31.720,0,0,0,0,0,0,0,0,0,
17.90735, 10:05:31.753,0,0,0,0,0,0,0,0,0,
17.93839, 10:05:31.786,0,0,0,0,0,0,0,0,0,
17.97418, 10:05:31.821,0,0,0,0,0,0,0,0,0,
18.00733, 10:05:31.853,0,0,0,0,0,0,0,0,0,
18.04386, 10:05:31.890,0,0,0,0,0,0,0,0,0,
18.07894, 10:05:31.924,0,0,0,0,0,0,0,0,0,
18.10956, 10:05:31.956,0,0,0,0,0,0,0,0,0,
18.14725, 10:05:31.994,0,0,0,0,0,0,0,0,0,
18.18077, 10:05:32.027,0,0,0,0,0,0,0,0,0,
18.2155, 10:05:32.062,0,0,0,0,0,0,0,0,0,
18.25182, 10:05:32.097,0,0,0,0,0,0,0,0,0,
18.28369, 10:05:32.130,0,0,0,0,0,0,0,0,0,
18.31583, 10:05:32.162,0,0,0,0,0,0,0,0,0,
18.34952, 10:05:32.196,0,0,0,0,0,0,0,0,0,
18.38295, 10:05:32.231,0,0,0,0,0,0,0,0,0,
18.41889, 10:05:32.265,0,0,0,0,0,0,0,0,0,
18.45496, 10:05:32.301,0,0,0,0,0,0,0,0,0,
18.51649, 10:05:32.365,0,0,0,0,0,0,0,0,0,
18.55426, 10:05:32.401,0,0,0,0,0,0,0,0,0,
18.59568, 10:05:32.443,0,0,0,0,0,0,0,0,0,
18.63101, 10:05:32.478,0,0,0,0,0,0,0,0,0,
18.67602, 10:05:32.523,0,0,0,0,0,0,0,0,0,
18.71442, 10:05:32.562,0,0,0,0,0,0,0,0,0,
18.76041, 10:05:32.608,0,0,0,0,0,0,0,0,0,
18.79516, 10:05:32.641,0,0,0,0,0,0,0,0,0,
18.8305, 10:05:32.677,0,0,0,0,0,0,0,0,0,
18.86584, 10:05:32.712,0,0,0,0,0,0,0,0,0,
18.9009, 10:05:32.748,0,0,0,0,0,0,0,0,0,
18.93344, 10:05:32.780,0,0,0,0,0,0,0,0,0,
18.96674, 10:05:32.813,0,0,0,0,0,0,0,0,0,
19.00661, 10:05:32.853,0,0,0,0,0,0,0,0,0,
19.04441, 10:05:32.891,0,0,0,0,0,0,0,0,0,
19.08035, 10:05:32.926,0,0,0,0,0,0,0,0,0,
19.11901, 10:05:32.964,0,0,0,0,0,0,0,0,0,
19.15514, 10:05:33.001,0,0,0,0,0,0,0,0,0,
19.18754, 10:05:33.033,0,0,0,0,0,0,0,0,0,
19.23298, 10:05:33.079,0,0,0,0,0,0,0,0,0,
19.27416, 10:05:33.120,0,0,0,0,0,0,0,0,0,
19.31053, 10:05:33.157,0,0,0,0,0,0,0,0,0,
19.34456, 10:05:33.191,0,0,0,0,0,0,0,0,0,
19.38442, 10:05:33.231,0,0,0,0,0,0,0,0,0,
19.4175, 10:05:33.262,0,0,0,0,0,0,0,0,0,
19.44833, 10:05:33.295,0,0,0,0,0,0,0,0,0,
19.48161, 10:05:33.328,0,0,0,0,0,0,0,0,0,
19.51363, 10:05:33.359,0,0,0,0,0,0,0,0,0,
19.55059, 10:05:33.396,0,0,0,0,0,0,0,0,0,
19.58524, 10:05:33.432,0,0,0,0,0,0,0,0,0,
19.61641, 10:05:33.463,0,0,0,0,0,0,0,0,0,
19.64933, 10:05:33.495,0,0,0,0,0,0,0,0,0,
19.68151, 10:05:33.527,0,0,0,0,0,0,0,0,0,
19.71895, 10:05:33.565,0,0,0,0,0,0,0,0,0,
19.76093, 10:05:33.609,0,0,0,0,0,0,0,0,0,
19.79485, 10:05:33.640,0,0,0,0,0,0,0,0,0,
19.82559, 10:05:33.673,0,0,0,0,0,0,0,0,0,
19.86563, 10:05:33.713,0,0,0,0,0,0,0,0,0,
19.90913, 10:05:33.756,0,0,0,0,0,0,0,0,0,
19.95381, 10:05:33.800,0,0,0,0,0,0,0,0,0,
19.99065, 10:05:33.837,0,0,0,0,0,0,0,0,0,
20.02322, 10:05:33.871,0,0,0,0,0,0,0,0,0,
20.06315, 10:05:33.909,0,0,0,0,0,0,0,0,0,
20.09636, 10:05:33.941,0,0,0,0,0,0,0,0,0,
20.12978, 10:05:33.976,0,0,0,0,0,0,0,0,0,
20.16733, 10:05:34.013,0,0,0,0,0,0,0,0,0,
20.21228, 10:05:34.059,0,0,0,0,0,0,0,0,0,
20.24708, 10:05:34.092,0,0,0,0,0,0,0,0,0,
20.27917, 10:05:34.125,0,0,0,0,0,0,0,0,0,
20.30982, 10:05:34.156,0,0,0,0,0,0,0,0,0,
20.34435, 10:05:34.190,0,0,0,0,0,0,0,0,0,
20.37644, 10:05:34.221,0,0,0,0,0,0,0,0,0,
20.41196, 10:05:34.259,0,0,0,0,0,0,0,0,0,
20.44964, 10:05:34.295,0,0,0,0,0,0,0,0,0,
20.48446, 10:05:34.331,0,0,0,0,0,0,0,0,0,
20.52454, 10:05:34.371,0,0,0,0,0,0,0,0,0,
20.5582, 10:05:34.403,0,0,0,0,0,0,0,0,0,
20.59104, 10:05:34.436,0,0,0,0,0,0,0,0,0,
20.62631, 10:05:34.473,0,0,0,0,0,0,0,0,0,
20.66076, 10:05:34.507,0,0,0,0,0,0,0,0,0,
20.70144, 10:05:34.548,0,0,0,0,0,0,0,0,0,
20.73682, 10:05:34.582,0,0,0,0,0,0,0,0,0,
20.77017, 10:05:34.616,0,0,0,0,0,0,0,0,0,
20.80734, 10:05:34.654,0,0,0,0,0,0,0,0,0,
20.84216, 10:05:34.689,0,0,0,0,0,0,0,0,0,
20.87716, 10:05:34.723,0,0,0,0,0,0,0,0,0,
20.90863, 10:05:34.755,0,0,0,0,0,0,0,0,0,
20.9459, 10:05:34.793,0,0,0,0,0,0,0,0,0,
20.98875, 10:05:34.835,0,0,0,0,0,0,0,0,0,
21.02804, 10:05:34.875,0,0,0,0,0,0,0,0,0,
21.07188, 10:05:34.920,0,0,0,0,0,0,0,0,0,
21.1167, 10:05:34.964,0,0,0,0,0,0,0,0,0,
21.15298, 10:05:35.000,0,0,0,0,0,0,0,0,0,
21.18834, 10:05:35.036,0,0,0,0,0,0,0,0,0,
21.22462, 10:05:35.071,0,0,0,0,0,0,0,0,0,
21.26472, 10:05:35.111,0,0,0,0,0,0,0,0,0,
21.3028, 10:05:35.148,0,0,0,0,0,0,0,0,0,
21.33546, 10:05:35.180,0,0,0,0,0,0,0,0,0,
21.36683, 10:05:35.213,0,0,0,0,0,0,0,0,0,
21.40058, 10:05:35.247,0,0,0,0,0,0,0,0,0,
21.43586, 10:05:35.281,0,0,0,0,0,0,0,0,0,
21.47074, 10:05:35.317,0,0,0,0,0,0,0,0,0,
21.5081, 10:05:35.354,0,0,0,0,0,0,0,0,0,
21.5388, 10:05:35.384,0,0,0,0,0,0,0,0,0,
21.57253, 10:05:35.418,0,0,0,0,0,0,0,0,0,
21.60509, 10:05:35.452,0,0,0,0,0,0,0,0,0,
21.64285, 10:05:35.488,0,0,0,0,0,0,0,0,0,
21.68178, 10:05:35.529,0,0,0,0,0,0,0,0,0,
21.72201, 10:05:35.568,0,0,0,0,0,0,0,0,0,
21.75505, 10:05:35.601,0,0,0,0,0,0,0,0,0,
21.78837, 10:05:35.634,0,0,0,0,0,0,0,0,0,
21.8218, 10:05:35.668,0,0,0,0,0,0,0,0,0,
21.85615, 10:05:35.702,0,0,0,0,0,0,0,0,0,
21.88633, 10:05:35.733,0,0,0,0,0,0,0,0,0,
21.92399, 10:05:35.770,0,0,0,0,0,0,0,0,0,
21.96013, 10:05:35.806,0,0,0,0,0,0,0,0,0,
21.99365, 10:05:35.839,0,0,0,0,0,0,0,0,0,
22.02421, 10:05:35.870,0,0,0,0,0,0,0,0,0,
22.0556, 10:05:35.901,0,0,0,0,0,0,0,0,0,
22.08944, 10:05:35.937,0,0,0,0,0,0,0,0,0,
22.12921, 10:05:35.976,0,0,0,0,0,0,0,0,0,
22.1671, 10:05:36.013,0,0,0,0,0,0,0,0,0,
22.2041, 10:05:36.055,0,0,0,0,0,0,0,0,0,
22.25266, 10:05:36.100,0,0,0,0,0,0,0,0,0,
22.29138, 10:05:36.139,0,0,0,0,0,0,0,0,0,
22.32913, 10:05:36.175,0,0,0,0,0,0,0,0,0,
22.36224, 10:05:36.210,0,0,0,0,0,0,0,0,0,
22.39782, 10:05:36.243,0,0,0,0,0,0,0,0,0,
22.42909, 10:05:36.275,0,0,0,0,0,0,0,0,0,
22.46326, 10:05:36.309,0,0,0,0,0,0,0,0,0,
22.49722, 10:05:36.343,0,0,0,0,0,0,0,0,0,
22.53112, 10:05:36.379,0,0,0,0,0,0,0,0,0,
22.56332, 10:05:36.410,0,0,0,0,0,0,0,0,0,
22.59636, 10:05:36.442,0,0,0,0,0,0,0,0,0,
22.63546, 10:05:36.483,0,0,0,0,0,0,0,0,0,
22.67197, 10:05:36.519,0,0,0,0,0,0,0,0,0,
22.70511, 10:05:36.551,0,0,0,0,0,0,0,0,0,
22.74456, 10:05:36.590,0,0,0,0,0,0,0,0,0,
22.77729, 10:05:36.622,0,0,0,0,0,0,0,0,0,
22.87546, 10:05:36.724,0,0,0,0,0,0,0,0,0,
22.91232, 10:05:36.759,0,0,0,0,0,0,0,0,0,
22.95459, 10:05:36.801,0,0,0,0,0,0,0,0,0,
23.0104, 10:05:36.857,0,0,0,0,0,0,0,0,0,
23.05005, 10:05:36.897,0,0,0,0,0,0,0,0,0,
23.08933, 10:05:36.935,0,0,0,0,0,0,0,0,0,
23.12694, 10:05:36.974,0,0,0,0,0,0,0,0,0,
23.16628, 10:05:37.012,0,0,0,0,0,0,0,0,0,
23.20246, 10:05:37.049,0,0,0,0,0,0,0,0,0,
23.23533, 10:05:37.083,0,0,0,0,0,0,0,0,0,
23.27075, 10:05:37.118,0,0,0,0,0,0,0,0,0,
23.30483, 10:05:37.152,0,0,0,0,0,0,0,0,0,
23.3562, 10:05:37.204,0,0,0,0,0,0,0,0,0,
23.39724, 10:05:37.246,0,0,0,0,0,0,0,0,0,
23.44357, 10:05:37.291,0,0,0,0,0,0,0,0,0,
23.47903, 10:05:37.326,0,0,0,0,0,0,0,0,0,
23.51305, 10:05:37.359,0,0,0,0,0,0,0,0,0,
23.54778, 10:05:37.397,0,0,0,0,0,0,0,0,0,
23.58301, 10:05:37.430,0,0,0,0,0,0,0,0,0,
23.61958, 10:05:37.464,0,0,0,0,0,0,0,0,0,
23.65117, 10:05:37.497,0,0,0,0,0,0,0,0,0,
23.68679, 10:05:37.532,0,0,0,0,0,0,0,0,0,
23.72313, 10:05:37.570,0,0,0,0,0,0,0,0,0,
23.7579, 10:05:37.603,0,0,0,0,0,0,0,0,0,
23.79222, 10:05:37.638,0,0,0,0,0,0,0,0,0,
23.83365, 10:05:37.679,0,0,0,0,0,0,0,0,0,
23.8688, 10:05:37.715,0,0,0,0,0,0,0,0,0,
23.90619, 10:05:37.753,0,0,0,0,0,0,0,0,0,
23.93922, 10:05:37.785,0,0,0,0,0,0,0,0,0,
23.97186, 10:05:37.818,0,0,0,0,0,0,0,0,0,
24.00792, 10:05:37.855,0,0,0,0,0,0,0,0,0,
24.05279, 10:05:37.900,0,0,0,0,0,0,0,0,0,
24.0909, 10:05:37.938,0,0,0,0,0,0,0,0,0,
24.12467, 10:05:37.971,0,0,0,0,0,0,0,0,0,
24.15685, 10:05:38.002,0,0,0,0,0,0,0,0,0,
24.19041, 10:05:38.036,0,0,0,0,0,0,0,0,0,
24.2254, 10:05:38.072,0,0,0,0,0,0,0,0,0,
24.27009, 10:05:38.117,0,0,0,0,0,0,0,0,0,
24.3042, 10:05:38.151,0,0,0,0,0,0,0,0,0,
24.33645, 10:05:38.182,0,0,0,0,0,0,0,0,0,
24.36928, 10:05:38.215,0,0,0,0,0,0,0,0,0,
24.40283, 10:05:38.249,0,0,0,0,0,0,0,0,0,
24.46062, 10:05:38.308,0,0,0,0,0,0,0,0,0,
24.49824, 10:05:38.343,0,0,0,0,0,0,0,0,0,
24.53399, 10:05:38.380,0,0,0,0,0,0,0,0,0,
24.58745, 10:05:38.435,0,0,0,0,0,0,0,0,0,
24.62519, 10:05:38.471,0,0,0,0,0,0,0,0,0,
24.65776, 10:05:38.503,0,0,0,0,0,0,0,0,0,
24.69176, 10:05:38.538,0,0,0,0,0,0,0,0,0,
24.73043, 10:05:38.576,0,0,0,0,0,0,0,0,0,
24.76796, 10:05:38.614,0,0,0,0,0,0,0,0,0,
24.80066, 10:05:38.647,0,0,0,0,0,0,0,0,0,
24.83399, 10:05:38.679,0,0,0,0,0,0,0,0,0,
24.86707, 10:05:38.713,0,0,0,0,0,0,0,0,0,
24.90294, 10:05:38.748,0,0,0,0,0,0,0,0,0,
24.93871, 10:05:38.784,0,0,0,0,0,0,0,0,0,
24.97073, 10:05:38.817,0,0,0,0,0,0,0,0,0,
25.00353, 10:05:38.850,0,0,0,0,0,0,0,0,0,
25.03512, 10:05:38.880,0,0,0,0,0,0,0,0,0,
25.06891, 10:05:38.915,0,0,0,0,0,0,0,0,0,
25.103, 10:05:38.949,0,0,0,0,0,0,0,0,0,
25.14357, 10:05:38.990,0,0,0,0,0,0,0,0,0,
25.17573, 10:05:39.021,0,0,0,0,0,0,0,0,0,
25.2067, 10:05:39.053,0,0,0,0,0,0,0,0,0,
25.24541, 10:05:39.092,0,0,0,0,0,0,0,0,0,
25.27808, 10:05:39.123,0,0,0,0,0,0,0,0,0,
25.30891, 10:05:39.155,0,0,0,0,0,0,0,0,0,
25.34459, 10:05:39.190,0,0,0,0,0,0,0,0,0,
25.37895, 10:05:39.224,0,0,0,0,0,0,0,0,0,
25.41208, 10:05:39.259,0,0,0,0,0,0,0,0,0,
25.44862, 10:05:39.295,0,0,0,0,0,0,0,0,0,
25.48269, 10:05:39.335,0,0,0,0,0,0,0,0,0,
25.52166, 10:05:39.368,0,0,0,0,0,0,0,0,0,
25.55913, 10:05:39.406,0,0,0,0,0,0,0,0,0,
25.59348, 10:05:39.442,0,0,0,0,0,0,0,0,0,
25.62921, 10:05:39.475,0,0,0,0,0,0,0,0,0,
25.66394, 10:05:39.511,0,0,0,0,0,0,0,0,0,
25.70396, 10:05:39.550,0,0,0,0,0,0,0,0,0,
25.74734, 10:05:39.596,0,0,0,0,0,0,0,0,0,
25.79374, 10:05:39.640,0,0,0,0,0,0,0,0,0,
25.83156, 10:05:39.678,0,0,0,0,0,0,0,0,0,
25.86424, 10:05:39.710,0,0,0,0,0,0,0,0,0,
25.89666, 10:05:39.742,0,0,0,0,0,0,0,0,0,
25.93073, 10:05:39.776,0,0,0,0,0,0,0,0,0,
25.97463, 10:05:39.821,0,0,0,0,0,0,0,0,0,
26.01062, 10:05:39.857,0,0,0,0,0,0,0,0,0,
26.04447, 10:05:39.891,0,0,0,0,0,0,0,0,0,
26.078, 10:05:39.923,0,0,0,0,0,0,0,0,0,
26.1952, 10:05:40.045,0,0,0,0,0,0,0,0,0,
26.23742, 10:05:40.084,0,0,0,0,0,0,0,0,0,
26.2933, 10:05:40.141,0,0,0,0,0,0,0,0,0,
26.35745, 10:05:40.205,0,0,0,0,0,0,0,0,0,
26.41544, 10:05:40.263,0,0,0,0,0,0,0,0,0,
26.4544, 10:05:40.301,0,0,0,0,0,0,0,0,0,
26.48838, 10:05:40.335,0,0,0,0,0,0,0,0,0,
26.52599, 10:05:40.374,0,0,0,0,0,0,0,0,0,
26.55968, 10:05:40.405,0,0,0,0,0,0,0,0,0,
26.59169, 10:05:40.437,0,0,0,0,0,0,0,0,0,
26.62755, 10:05:40.473,0,0,0,0,0,0,0,0,0,
26.66635, 10:05:40.515,0,0,0,0,0,0,0,0,0,
26.70297, 10:05:40.549,0,0,0,0,0,0,0,0,0,
26.74438, 10:05:40.593,0,0,0,0,0,0,0,0,0,
26.78373, 10:05:40.632,0,0,0,0,0,0,0,0,0,
26.82041, 10:05:40.667,0,0,0,0,0,0,0,0,0,
26.86607, 10:05:40.712,0,0,0,0,0,0,0,0,0,
26.90556, 10:05:40.752,0,0,0,0,0,0,0,0,0,
26.94659, 10:05:40.793,0,0,0,0,0,0,0,0,0,
26.98192, 10:05:40.829,0,0,0,0,0,0,0,0,0,
27.01732, 10:05:40.863,0,0,0,0,0,0,0,0,0,
27.04959, 10:05:40.896,0,0,0,0,0,0,0,0,0,
27.08165, 10:05:40.929,0,0,0,0,0,0,0,0,0,
27.13006, 10:05:40.977,0,0,0,0,0,0,0,0,0,
27.16868, 10:05:41.016,0,0,0,0,0,0,0,0,0,
27.20421, 10:05:41.052,0,0,0,0,0,0,0,0,0,
27.23713, 10:05:41.082,0,0,0,0,0,0,0,0,0,
27.27202, 10:05:41.117,0,0,0,0,0,0,0,0,0,
27.30887, 10:05:41.155,0,0,0,0,0,0,0,0,0,
27.34676, 10:05:41.194,0,0,0,0,0,0,0,0,0,
27.38108, 10:05:41.228,0,0,0,0,0,0,0,0,0,
27.41635, 10:05:41.264,0,0,0,0,0,0,0,0,0,
27.45489, 10:05:41.302,0,0,0,0,0,0,0,0,0,
27.49067, 10:05:41.337,0,0,0,0,0,0,0,0,0,
27.52381, 10:05:41.370,0,0,0,0,0,0,0,0,0,
27.56313, 10:05:41.409,0,0,0,0,0,0,0,0,0,
27.6009, 10:05:41.447,0,0,0,0,0,0,0,0,0,
27.63669, 10:05:41.482,0,0,0,0,0,0,0,0,0,
27.67443, 10:05:41.521,0,0,0,0,0,0,0,0,0,
27.71185, 10:05:41.558,0,0,0,0,0,0,0,0,0,
27.7478, 10:05:41.595,0,0,0,0,0,0,0,0,0,
27.78582, 10:05:41.633,0,0,0,0,0,0,0,0,0,
27.82061, 10:05:41.667,0,0,0,0,0,0,0,0,0,
27.85791, 10:05:41.704,0,0,0,0,0,0,0,0,0,
27.89084, 10:05:41.737,0,0,0,0,0,0,0,0,0,
27.92584, 10:05:41.772,0,0,0,0,0,0,0,0,0,
27.96145, 10:05:41.809,0,0,0,0,0,0,0,0,0,
28.00531, 10:05:41.853,0,0,0,0,0,0,0,0,0,
28.0519, 10:05:41.898,0,0,0,0,0,0,0,0,0,
28.08584, 10:05:41.933,0,0,0,0,0,0,0,0,0,
28.11961, 10:05:41.964,0,0,0,0,0,0,0,0,0,
28.15523, 10:05:42.002,0,0,0,0,0,0,0,0,0,
28.19018, 10:05:42.035,0,0,0,0,0,0,0,0,0,
28.22595, 10:05:42.072,0,0,0,0,0,0,0,0,0,
28.25878, 10:05:42.105,0,0,0,0,0,0,0,0,0,
28.29904, 10:05:42.146,0,0,0,0,0,0,0,0,0,
28.33574, 10:05:42.182,0,0,0,0,0,0,0,0,0,
28.37162, 10:05:42.218,0,0,0,0,0,0,0,0,0,
28.40352, 10:05:42.250,0,0,0,0,0,0,0,0,0,
28.44079, 10:05:42.287,0,0,0,0,0,0,0,0,0,
28.47789, 10:05:42.324,0,0,0,0,0,0,0,0,0,
28.51542, 10:05:42.362,0,0,0,0,0,0,0,0,0,
28.54978, 10:05:42.396,0,0,0,0,0,0,0,0,0,
28.58349, 10:05:42.430,0,0,0,0,0,0,0,0,0,
28.61646, 10:05:42.461,0,0,0,0,0,0,0,0,0,
28.65144, 10:05:42.498,0,0,0,0,0,0,0,0,0,
28.68596, 10:05:42.533,0,0,0,0,0,0,0,0,0,
28.72562, 10:05:42.573,0,0,0,0,0,0,0,0,0,
28.7636, 10:05:42.609,0,0,0,0,0,0,0,0,0,
28.79611, 10:05:42.642,0,0,0,0,0,0,0,0,0,
28.82778, 10:05:42.674,0,0,0,0,0,0,0,0,0,
28.86637, 10:05:42.714,0,0,0,0,0,0,0,0,0,
28.90397, 10:05:42.749,0,0,0,0,0,0,0,0,0,
28.93621, 10:05:42.781,0,0,0,0,0,0,0,0,0,
28.96846, 10:05:42.816,0,0,0,0,0,0,0,0,0,
29.00927, 10:05:42.856,0,0,0,0,0,0,0,0,0,
29.04413, 10:05:42.890,0,0,0,0,0,0,0,0,0,
29.08681, 10:05:42.933,0,0,0,0,0,0,0,0,0,
29.12574, 10:05:42.973,0,0,0,0,0,0,0,0,0,
29.16296, 10:05:43.011,0,0,0,0,0,0,0,0,0,
29.21323, 10:05:43.062,0,0,0,0,0,0,0,0,0,
29.25186, 10:05:43.099,0,0,0,0,0,0,0,0,0,
29.2889, 10:05:43.136,0,0,0,0,0,0,0,0,0,
29.32121, 10:05:43.167,0,0,0,0,0,0,0,0,0,
29.35615, 10:05:43.201,0,0,0,0,0,0,0,0,0,
29.3891, 10:05:43.235,0,0,0,0,0,0,0,0,0,
29.42938, 10:05:43.276,0,0,0,0,0,0,0,0,0,
29.46152, 10:05:43.309,0,0,0,0,0,0,0,0,0,
29.49944, 10:05:43.346,0,0,0,0,0,0,0,0,0,
29.53241, 10:05:43.379,0,0,0,0,0,0,0,0,0,
29.56845, 10:05:43.414,0,0,0,0,0,0,0,0,0,
29.60123, 10:05:43.446,0,0,0,0,0,0,0,0,0,
29.63289, 10:05:43.478,0,0,0,0,0,0,0,0,0,
29.66439, 10:05:43.511,0,0,0,0,0,0,0,0,0,
29.70323, 10:05:43.550,0,0,0,0,0,0,0,0,0,
29.74608, 10:05:43.593,0,0,0,0,0,0,0,0,0,
29.77887, 10:05:43.624,0,0,0,0,0,0,0,0,0,
29.81135, 10:05:43.657,0,0,0,0,0,0,0,0,0,
29.84454, 10:05:43.692,0,0,0,0,0,0,0,0,0,
29.87958, 10:05:43.725,0,0,0,0,0,0,0,0,0,
29.91686, 10:05:43.763,0,0,0,0,0,0,0,0,0,
29.94866, 10:05:43.796,0,0,0,0,0,0,0,0,0,
29.98098, 10:05:43.827,0,0,0,0,0,0,0,0,0,
30.01532, 10:05:43.861,0,0,0,0,0,0,0,0,0,
30.04891, 10:05:43.896,0,0,0,0,0,0,0,0,0,
30.08452, 10:05:43.930,0,0,0,0,0,0,0,0,0,
30.12014, 10:05:43.974,0,0,0,0,0,0,0,0,0,
30.16397, 10:05:44.012,0,0,0,0,0,0,0,0,0,
30.19717, 10:05:44.043,0,0,0,0,0,0,0,0,0,
30.23747, 10:05:44.083,0,0,0,0,0,0,0,0,0,
30.27768, 10:05:44.123,0,0,0,0,0,0,0,0,0,
30.32044, 10:05:44.168,0,0,0,0,0,0,0,0,0,
30.36397, 10:05:44.211,0,0,0,0,0,0,0,0,0,
30.4154, 10:05:44.263,0,0,0,0,0,0,0,0,0,
30.45124, 10:05:44.299,0,0,0,0,0,0,0,0,0,
30.48655, 10:05:44.332,0,0,0,0,0,0,0,0,0,
30.5224, 10:05:44.368,0,0,0,0,0,0,0,0,0,
30.55851, 10:05:44.404,0,0,0,0,0,0,0,0,0,
30.59345, 10:05:44.439,0,0,0,0,0,0,0,0,0,
30.62869, 10:05:44.477,0,0,0,0,0,0,0,0,0,
30.66362, 10:05:44.511,0,0,0,0,0,0,0,0,0,
30.69951, 10:05:44.546,0,0,0,0,0,0,0,0,0,
30.73695, 10:05:44.585,0,0,0,0,0,0,0,0,0,
30.77806, 10:05:44.626,0,0,0,0,0,0,0,0,0,
30.81284, 10:05:44.659,0,0,0,0,0,0,0,0,0,
30.85101, 10:05:44.698,0,0,0,0,0,0,0,0,0,
30.88803, 10:05:44.734,0,0,0,0,0,0,0,0,0,
30.9239, 10:05:44.769,0,0,0,0,0,0,0,0,0,
30.95551, 10:05:44.801,0,0,0,0,0,0,0,0,0,
30.99234, 10:05:44.839,0,0,0,0,0,0,0,0,0,
31.02584, 10:05:44.872,0,0,0,0,0,0,0,0,0,
31.06421, 10:05:44.911,0,0,0,0,0,0,0,0,0,
31.09941, 10:05:44.945,0,0,0,0,0,0,0,0,0,
31.13239, 10:05:44.978,0,0,0,0,0,0,0,0,0,
31.16584, 10:05:45.013,0,0,0,0,0,0,0,0,0,
31.20177, 10:05:45.048,0,0,0,0,0,0,0,0,0,
31.23831, 10:05:45.083,0,0,0,0,0,0,0,0,0,
31.27192, 10:05:45.118,0,0,0,0,0,0,0,0,0,
31.30637, 10:05:45.153,0,0,0,0,0,0,0,0,0,
31.33793, 10:05:45.184,0,0,0,0,0,0,0,0,0,
31.37059, 10:05:45.217,0,0,0,0,0,0,0,0,0,
31.40821, 10:05:45.254,0,0,0,0,0,0,0,0,0,
31.44297, 10:05:45.289,0,0,0,0,0,0,0,0,0,
31.47707, 10:05:45.324,0,0,0,0,0,0,0,0,0,
31.51439, 10:05:45.361,0,0,0,0,0,0,0,0,0,
31.56263, 10:05:45.410,0,0,0,0,0,0,0,0,0,
31.6004, 10:05:45.447,0,0,0,0,0,0,0,0,0,
31.63848, 10:05:45.484,0,0,0,0,0,0,0,0,0,
31.67319, 10:05:45.520,0,0,0,0,0,0,0,0,0,
31.70579, 10:05:45.552,0,0,0,0,0,0,0,0,0,
31.74047, 10:05:45.587,0,0,0,0,0,0,0,0,0,
31.77428, 10:05:45.619,0,0,0,0,0,0,0,0,0,
31.80779, 10:05:45.654,0,0,0,0,0,0,0,0,0,
31.84491, 10:05:45.692,0,0,0,0,0,0,0,0,0,
31.88849, 10:05:45.735,0,0,0,0,0,0,0,0,0,
31.92238, 10:05:45.768,0,0,0,0,0,0,0,0,0,
31.95723, 10:05:45.802,0,0,0,0,0,0,0,0,0,
31.99375, 10:05:45.841,0,0,0,0,0,0,0,0,0,
32.02775, 10:05:45.874,0,0,0,0,0,0,0,0,0,
32.06465, 10:05:45.912,0,0,0,0,0,0,0,0,0,
32.10169, 10:05:45.949,0,0,0,0,0,0,0,0,0,
32.13849, 10:05:45.985,0,0,0,0,0,0,0,0,0,
32.17359, 10:05:46.021,0,0,0,0,0,0,0,0,0,
32.20829, 10:05:46.055,0,0,0,0,0,0,0,0,0,
32.24152, 10:05:46.087,0,0,0,0,0,0,0,0,0,
32.28044, 10:05:46.126,0,0,0,0,0,0,0,0,0,
32.31895, 10:05:46.165,0,0,0,0,0,0,0,0,0,
32.35431, 10:05:46.202,0,0,0,0,0,0,0,0,0,
32.38867, 10:05:46.235,0,0,0,0,0,0,0,0,0,
32.42144, 10:05:46.269,0,0,0,0,0,0,0,0,0,
32.45673, 10:05:46.302,0,0,0,0,0,0,0,0,0,
32.49613, 10:05:46.344,0,0,0,0,0,0,0,0,0,
32.53135, 10:05:46.378,0,0,0,0,0,0,0,0,0,
32.56282, 10:05:46.411,0,0,0,0,0,0,0,0,0,
32.60208, 10:05:46.448,0,0,0,0,0,0,0,0,0,
32.63879, 10:05:46.485,0,0,0,0,0,0,0,0,0,
32.6783, 10:05:46.525,0,0,0,0,0,0,0,0,0,
32.7307, 10:05:46.579,0,0,0,0,0,0,0,0,0,
32.76833, 10:05:46.614,0,0,0,0,0,0,0,0,0,
32.80329, 10:05:46.649,0,0,0,0,0,0,0,0,0,
32.83829, 10:05:46.684,0,0,0,0,0,0,0,0,0,
32.87352, 10:05:46.720,0,0,0,0,0,0,0,0,0,
32.90505, 10:05:46.751,0,0,0,0,0,0,0,0,0,
32.94081, 10:05:46.787,0,0,0,0,0,0,0,0,0,
32.97421, 10:05:46.820,0,0,0,0,0,0,0,0,0,
33.00818, 10:05:46.854,0,0,0,0,0,0,0,0,0,
33.04705, 10:05:46.893,0,0,0,0,0,0,0,0,0,
33.08598, 10:05:46.933,0,0,0,0,0,0,0,0,0,
33.12341, 10:05:46.970,0,0,0,0,0,0,0,0,0,
33.16414, 10:05:47.012,0,0,0,0,0,0,0,0,0,
33.20364, 10:05:47.052,0,0,0,0,0,0,0,0,0,
33.24305, 10:05:47.090,0,0,0,0,0,0,0,0,0,
33.27752, 10:05:47.124,0,0,0,0,0,0,0,0,0,
33.3135, 10:05:47.160,0,0,0,0,0,0,0,0,0,
33.34748, 10:05:47.194,0,0,0,0,0,0,0,0,0,
33.38655, 10:05:47.233,0,0,0,0,0,0,0,0,0,
33.42296, 10:05:47.270,0,0,0,0,0,0,0,0,0,
33.45693, 10:05:47.302,0,0,0,0,0,0,0,0,0,
33.4897, 10:05:47.336,0,0,0,0,0,0,0,0,0,
33.52232, 10:05:47.368,0,0,0,0,0,0,0,0,0,
33.56483, 10:05:47.411,0,0,0,0,0,0,0,0,0,
33.60229, 10:05:47.448,0,0,0,0,0,0,0,0,0,
33.63594, 10:05:47.481,0,0,0,0,0,0,0,0,0,
33.6685, 10:05:47.515,0,0,0,0,0,0,0,0,0,
33.70378, 10:05:47.550,0,0,0,0,0,0,0,0,0,
33.74078, 10:05:47.588,0,0,0,0,0,0,0,0,0,
33.77634, 10:05:47.622,0,0,0,0,0,0,0,0,0,
33.81844, 10:05:47.666,0,0,0,0,0,0,0,0,0,
33.85502, 10:05:47.704,0,0,0,0,0,0,0,0,0,
33.90071, 10:05:47.749,0,0,0,0,0,0,0,0,0,
33.94078, 10:05:47.788,0,0,0,0,0,0,0,0,0,
33.97615, 10:05:47.822,0,0,0,0,0,0,0,0,0,
34.00723, 10:05:47.853,0,0,0,0,0,0,0,0,0,
34.04604, 10:05:47.893,0,0,0,0,0,0,0,0,0,
34.09069, 10:05:47.938,0,0,0,0,0,0,0,0,0,
34.12303, 10:05:47.969,0,0,0,0,0,0,0,0,0,
34.15939, 10:05:48.005,0,0,0,0,0,0,0,0,0,
34.19421, 10:05:48.040,0,0,0,0,0,0,0,0,0,
34.2303, 10:05:48.077,0,0,0,0,0,0,0,0,0,
34.26766, 10:05:48.114,0,0,0,0,0,0,0,0,0,
34.30098, 10:05:48.148,0,0,0,0,0,0,0,0,0,
34.33659, 10:05:48.183,0,0,0,0,0,0,0,0,0,
34.37157, 10:05:48.217,0,0,0,0,0,0,0,0,0,
34.40642, 10:05:48.253,0,0,0,0,0,0,0,0,0,
34.43985, 10:05:48.285,0,0,0,0,0,0,0,0,0,
34.47477, 10:05:48.320,0,0,0,0,0,0,0,0,0,
34.50952, 10:05:48.356,0,0,0,0,0,0,0,0,0,
34.54676, 10:05:48.392,0,0,0,0,0,0,0,0,0,
34.58141, 10:05:48.428,0,0,0,0,0,0,0,0,0,
34.61395, 10:05:48.466,0,0,0,0,0,0,0,0,0,
34.65147, 10:05:48.497,0,0,0,0,0,0,0,0,0,
34.68829, 10:05:48.535,0,0,0,0,0,0,0,0,0,
34.72204, 10:05:48.568,0,0,0,0,0,0,0,0,0,
34.76212, 10:05:48.608,0,0,0,0,0,0,0,0,0,
34.79371, 10:05:48.638,0,0,0,0,0,0,0,0,0,
34.8276, 10:05:48.675,0,0,0,0,0,0,0,0,0,
34.86155, 10:05:48.708,0,0,0,0,0,0,0,0,0,
34.90014, 10:05:48.747,0,0,0,0,0,0,0,0,0,
34.9334, 10:05:48.779,0,0,0,0,0,0,0,0,0,
34.96854, 10:05:48.815,0,0,0,0,0,0,0,0,0,
35.00704, 10:05:48.853,0,0,0,0,0,0,0,0,0,
35.05447, 10:05:48.900,0,0,0,0,0,0,0,0,0,
35.09254, 10:05:48.939,0,0,0,0,0,0,0,0,0,
35.13158, 10:05:48.978,0,0,0,0,0,0,0,0,0,
35.24163, 10:05:49.094,0,0,0,0,0,0,0,0,0,
35.29853, 10:05:49.146,0,0,0,0,0,0,0,0,0,
35.34851, 10:05:49.196,0,0,0,0,0,0,0,0,0,
35.41275, 10:05:49.260,0,0,0,0,0,0,0,0,0,
35.45473, 10:05:49.301,0,0,0,0,0,0,0,0,0,
35.49175, 10:05:49.338,0,0,0,0,0,0,0,0,0,
35.52596, 10:05:49.372,0,0,0,0,0,0,0,0,0,
35.56586, 10:05:49.412,0,0,0,0,0,0,0,0,0,
35.60165, 10:05:49.448,0,0,0,0,0,0,0,0,0,
35.63696, 10:05:49.482,0,0,0,0,0,0,0,0,0,
35.66942, 10:05:49.516,0,0,0,0,0,0,0,0,0,
35.7007, 10:05:49.546,0,0,0,0,0,0,0,0,0,
35.73606, 10:05:49.582,0,0,0,0,0,0,0,0,0,
35.78104, 10:05:49.629,0,0,0,0,0,0,0,0,0,
35.81716, 10:05:49.663,0,0,0,0,0,0,0,0,0,
35.85102, 10:05:49.698,0,0,0,0,0,0,0,0,0,
35.88682, 10:05:49.734,0,0,0,0,0,0,0,0,0,
35.9222, 10:05:49.769,0,0,0,0,0,0,0,0,0,
35.95714, 10:05:49.803,0,0,0,0,0,0,0,0,0,
35.99286, 10:05:49.840,0,0,0,0,0,0,0,0,0,
36.0259, 10:05:49.872,0,0,0,0,0,0,0,0,0,
36.05866, 10:05:49.904,0,0,0,0,0,0,0,0,0,
36.09361, 10:05:49.940,0,0,0,0,0,0,0,0,0,
36.13188, 10:05:49.978,0,0,0,0,0,0,0,0,0,
36.17451, 10:05:50.022,0,0,0,0,0,0,0,0,0,
36.22506, 10:05:50.072,0,0,0,0,0,0,0,0,0,
36.26538, 10:05:50.112,0,0,0,0,0,0,0,0,0,
36.30393, 10:05:50.152,0,0,0,0,0,0,0,0,0,
36.33746, 10:05:50.183,0,0,0,0,0,0,0,0,0,
36.3706, 10:05:50.219,0,0,0,0,0,0,0,0,0,
36.4049, 10:05:50.252,0,0,0,0,0,0,0,0,0,
36.44424, 10:05:50.291,0,0,0,0,0,0,0,0,0,
36.48044, 10:05:50.326,0,0,0,0,0,0,0,0,0,
36.51669, 10:05:50.364,0,0,0,0,0,0,0,0,0,
36.55079, 10:05:50.397,0,0,0,0,0,0,0,0,0,
36.58803, 10:05:50.434,0,0,0,0,0,0,0,0,0,
36.62394, 10:05:50.471,0,0,0,0,0,0,0,0,0,
36.66071, 10:05:50.507,0,0,0,0,0,0,0,0,0,
36.69425, 10:05:50.540,0,0,0,0,0,0,0,0,0,
36.72687, 10:05:50.574,0,0,0,0,0,0,0,0,0,
36.76474, 10:05:50.612,0,0,0,0,0,0,0,0,0,
36.80371, 10:05:50.650,0,0,0,0,0,0,0,0,0,
36.84058, 10:05:50.687,0,0,0,0,0,0,0,0,0,
36.87603, 10:05:50.721,0,0,0,0,0,0,0,0,0,
36.90853, 10:05:50.754,0,0,0,0,0,0,0,0,0,
36.94205, 10:05:50.788,0,0,0,0,0,0,0,0,0,
36.97708, 10:05:50.823,0,0,0,0,0,0,0,0,0,
37.01281, 10:05:50.860,0,0,0,0,0,0,0,0,0,
37.04779, 10:05:50.894,0,0,0,0,0,0,0,0,0,
37.08405, 10:05:50.931,0,0,0,0,0,0,0,0,0,
37.11771, 10:05:50.963,0,0,0,0,0,0,0,0,0,
37.15172, 10:05:50.998,0,0,0,0,0,0,0,0,0,
37.18757, 10:05:51.035,0,0,0,0,0,0,0,0,0,
37.22653, 10:05:51.073,0,0,0,0,0,0,0,0,0,
37.25962, 10:05:51.106,0,0,0,0,0,0,0,0,0,
37.32568, 10:05:51.177,0,0,0,0,0,0,0,0,0,
37.37699, 10:05:51.224,0,0,0,0,0,0,0,0,0,
37.41203, 10:05:51.260,0,0,0,0,0,0,0,0,0,
37.44714, 10:05:51.295,0,0,0,0,0,0,0,0,0,
37.48674, 10:05:51.332,0,0,0,0,0,0,0,0,0,
37.53796, 10:05:51.551,0,0,0,0,0,0,0,0,0,
37.75005, 10:05:51.608,0,0,0,0,0,0,0,0,0,
37.80531, 10:05:51.653,0,0,0,0,0,0,0,0,0,
37.8789, 10:05:51.727,0,0,0,0,0,0,0,0,0,
37.95406, 10:05:51.802,0,0,0,0,0,0,0,0,0,
38.00234, 10:05:51.852,0,0,0,0,0,0,0,0,0,
38.04358, 10:05:51.891,0,0,0,0,0,0,0,0,0,
38.07677, 10:05:51.923,0,0,0,0,0,0,0,0,0,
38.11004, 10:05:51.957,0,0,0,0,0,0,0,0,0,
38.14692, 10:05:51.993,0,0,0,0,0,0,0,0,0,
38.18106, 10:05:52.028,0,0,0,0,0,0,0,0,0,
38.21728, 10:05:52.063,0,0,0,0,0,0,0,0,0,
38.24901, 10:05:52.096,0,0,0,0,0,0,0,0,0,
38.30719, 10:05:52.154,0,0,0,0,0,0,0,0,0,
38.34706, 10:05:52.194,0,0,0,0,0,0,0,0,0,
38.38223, 10:05:52.228,0,0,0,0,0,0,0,0,0,
38.41779, 10:05:52.264,0,0,0,0,0,0,0,0,0,
38.4566, 10:05:52.303,0,0,0,0,0,0,0,0,0,
38.49108, 10:05:52.337,0,0,0,0,0,0,0,0,0,
38.53095, 10:05:52.377,0,0,0,0,0,0,0,0,0,
38.56578, 10:05:52.413,0,0,0,0,0,0,0,0,0,
38.60052, 10:05:52.447,0,0,0,0,0,0,0,0,0,
38.63921, 10:05:52.485,0,0,0,0,0,0,0,0,0,
38.67302, 10:05:52.519,0,0,0,0,0,0,0,0,0,
38.71239, 10:05:52.558,0,0,0,0,0,0,0,0,0,
38.75011, 10:05:52.597,0,0,0,0,0,0,0,0,0,
38.78695, 10:05:52.634,0,0,0,0,0,0,0,0,0,
38.82122, 10:05:52.668,0,0,0,0,0,0,0,0,0,
38.86401, 10:05:52.711,0,0,0,0,0,0,0,0,0,
38.90017, 10:05:52.747,0,0,0,0,0,0,0,0,0,
38.94265, 10:05:52.793,0,0,0,0,0,0,0,0,0,
38.98708, 10:05:52.835,0,0,0,0,0,0,0,0,0,
39.03314, 10:05:52.879,0,0,0,0,0,0,0,0,0,
39.08043, 10:05:52.929,0,0,0,0,0,0,0,0,0,
39.11637, 10:05:52.962,0,0,0,0,0,0,0,0,0,
39.25267, 10:05:53.105,0,0,0,0,0,0,0,0,0,
39.29957, 10:05:53.146,0,0,0,0,0,0,0,0,0,
39.3694, 10:05:53.218,0,0,0,0,0,0,0,0,0,
39.44864, 10:05:53.298,0,0,0,0,0,0,0,0,0,
39.49132, 10:05:53.339,0,0,0,0,0,0,0,0,0,
39.53628, 10:05:53.384,0,0,0,0,0,0,0,0,0,
39.58302, 10:05:53.432,0,0,0,0,0,0,0,0,0,
39.61787, 10:05:53.463,0,0,0,0,0,0,0,0,0,
39.65263, 10:05:53.499,0,0,0,0,0,0,0,0,0,
39.68866, 10:05:53.535,0,0,0,0,0,0,0,0,0,
39.72641, 10:05:53.572,0,0,0,0,0,0,0,0,0,
39.76331, 10:05:53.609,0,0,0,0,0,0,0,0,0,
39.79771, 10:05:53.644,0,0,0,0,0,0,0,0,0,
39.83976, 10:05:53.687,0,0,0,0,0,0,0,0,0,
39.87874, 10:05:53.725,0,0,0,0,0,0,0,0,0,
39.91138, 10:05:53.758,0,0,0,0,0,0,0,0,0,
39.94342, 10:05:53.788,0,0,0,0,0,0,0,0,0,
39.98488, 10:05:53.831,0,0,0,0,0,0,0,0,0,
40.02193, 10:05:53.869,0,0,0,0,0,0,0,0,0,
40.35526, 10:05:54.809,0,0,0,0,0,0,0,0,0,
40.4126, 10:05:54.851,0,0,0,0,0,0,0,0,0,
40.48661, 10:05:54.927,0,0,0,0,0,0,0,0,0,
40.56919, 10:05:55.009,0,0,0,0,0,0,0,0,0,
40.61343, 10:05:55.053,0,0,0,0,0,0,0,0,0,
40.94677, 10:05:55.409,0,0,0,0,0,0,0,0,0,
41.01123, 10:05:55.458,0,0,0,0,0,0,0,0,0,
41.05127, 10:05:55.497,0,0,0,0,0,0,0,0,0,
41.13777, 10:05:55.587,0,0,0,0,0,0,0,0,0,
41.21885, 10:05:55.667,0,0,0,0,0,0,0,0,0,
41.279, 10:05:55.726,0,0,0,0,0,0,0,0,0,
41.31712, 10:05:55.764,0,0,0,0,0,0,0,0,0,
41.35965, 10:05:55.806,0,0,0,0,0,0,0,0,0,
41.40051, 10:05:55.848,0,0,0,0,0,0,0,0,0,
41.43583, 10:05:55.880,0,0,0,0,0,0,0,0,0,
41.47595, 10:05:55.922,0,0,0,0,0,0,0,0,0,
41.52208, 10:05:55.973,0,0,0,0,0,0,0,0,0,
41.56844, 10:05:56.014,0,0,0,0,0,0,0,0,0,
41.60793, 10:05:56.053,0,0,0,0,0,0,0,0,0,
41.64322, 10:05:56.088,0,0,0,0,0,0,0,0,0,
41.68277, 10:05:56.131,0,0,0,0,0,0,0,0,0,
41.72918, 10:05:56.177,0,0,0,0,0,0,0,0,0,
41.76607, 10:05:56.272,0,0,0,0,0,0,0,0,0,
41.8672, 10:05:56.318,0,0,0,0,0,0,0,0,0,
41.91957, 10:05:56.365,0,0,0,0,0,0,0,0,0,
41.96071, 10:05:56.407,0,0,0,0,0,0,0,0,0,
41.99757, 10:05:56.442,0,0,0,0,0,0,0,0,0,
42.03499, 10:05:56.481,0,0,0,0,0,0,0,0,0,
42.06865, 10:05:56.515,0,0,0,0,0,0,0,0,0,
42.10538, 10:05:56.551,0,0,0,0,0,0,0,0,0,
42.13951, 10:05:56.584,0,0,0,0,0,0,0,0,0,
42.17536, 10:05:56.620,0,0,0,0,0,0,0,0,0,
42.20957, 10:05:56.656,0,0,0,0,0,0,0,0,0,
42.24643, 10:05:56.692,0,0,0,0,0,0,0,0,0,
42.28758, 10:05:56.733,0,0,0,0,0,0,0,0,0,
42.32488, 10:05:56.771,0,0,0,0,0,0,0,0,0,
42.35969, 10:05:56.805,0,0,0,0,0,0,0,0,0,
42.39647, 10:05:56.843,0,0,0,0,0,0,0,0,0,
42.43149, 10:05:56.878,0,0,0,0,0,0,0,0,0,
42.46497, 10:05:56.911,0,0,0,0,0,0,0,0,0,
42.49817, 10:05:56.942,0,0,0,0,0,0,0,0,0,
42.53757, 10:05:56.983,0,0,0,0,0,0,0,0,0,
42.57573, 10:05:57.021,0,0,0,0,0,0,0,0,0,
42.61165, 10:05:57.058,0,0,0,0,0,0,0,0,0,
42.64838, 10:05:57.094,0,0,0,0,0,0,0,0,0,
42.68556, 10:05:57.131,0,0,0,0,0,0,0,0,0,
42.72064, 10:05:57.167,0,0,0,0,0,0,0,0,0,
42.76237, 10:05:57.208,0,0,0,0,0,0,0,0,0,
42.79942, 10:05:57.244,0,0,0,0,0,0,0,0,0,
42.82954, 10:05:57.276,0,0,0,0,0,0,0,0,0,
42.86433, 10:05:57.308,0,0,0,0,0,0,0,0,0,
42.90329, 10:05:57.351,0,0,0,0,0,0,0,0,0,
42.96444, 10:05:57.417,0,0,0,0,0,0,0,0,0,
43.03212, 10:05:57.479,0,0,0,0,0,0,0,0,0,
43.07059, 10:05:57.517,0,0,0,0,0,0,0,0,0,
43.11082, 10:05:57.556,0,0,0,0,0,0,0,0,0,
43.14631, 10:05:57.593,0,0,0,0,0,0,0,0,0,
43.22713, 10:05:57.674,0,0,0,0,0,0,0,0,0,
43.29094, 10:05:57.737,0,0,0,0,0,0,0,0,0,
Elapsed_Time, System_Time, Euler_Roll, Euler_Pitch, Euler_Yaw, Gyro_Roll, Gyro_Pitch, Gyro_Yaw, Accel_x, Accel_y, Accel_z
0.02, 10:08:36.807,0,0,0,0,0,0,0,0,0,
0.04, 10:08:36.947,0,0,0,0,0,0,0,0,0,
0.3733333, 10:08:37.619,0,0,0,0,0,0,0,0,0,
0.5059425, 10:08:37.741,0,0,0,0,0,0,0,0,0,
0.6056527, 10:08:37.837,0,0,0,0,0,0,0,0,0,
0.6625912, 10:08:37.890,0,0,0,0,0,0,0,0,0,
0.7304038, 10:08:37.958,0,0,0,0,0,0,0,0,0,
0.7873126, 10:08:38.015,0,0,0,0,0,0,0,0,0,
0.8363012, 10:08:38.065,0,0,0,0,0,0,0,0,0,
0.9038074, 10:08:38.133,0,0,0,0,0,0,0,0,0,
0.9573426, 10:08:38.186,0,0,0,0,0,0,0,0,0,
1.005241, 10:08:38.233,0,0,0,0,0,0,0,0,0,
1.041606, 10:08:38.268,0,0,0,0,0,0,0,0,0,
1.090636, 10:08:38.318,0,0,0,0,0,0,0,0,0,
1.130936, 10:08:38.358,0,0,0,0,0,0,0,0,0,
1.179157, 10:08:38.426,0,0,0,0,0,0,0,0,0,
1.248569, 10:08:38.478,0,0,0,0,0,0,0,0,0,
1.31111, 10:08:38.540,0,0,0,0,0,0,0,0,0,
1.357693, 10:08:38.585,0,0,0,0,0,0,0,0,0,
1.402915, 10:08:38.632,0,0,0,0,0,0,0,0,0,
1.447388, 10:08:38.736,0,0,0,0,0,0,0,0,0,
1.55632, 10:08:38.787,0,0,0,0,0,0,0,0,0,
1.605173, 10:08:38.834,0,0,0,0,0,0,0,0,0,
1.701279, 10:08:38.931,0,0,0,0,0,0,0,0,0,
1.755418, 10:08:38.983,0,0,0,0,0,0,0,0,0,
1.800787, 10:08:39.029,0,0,0,0,0,0,0,0,0,
1.898417, 10:08:39.126,0,0,0,0,0,0,0,0,0,
1.937126, 10:08:39.165,0,0,0,0,0,0,0,0,0,
1.981597, 10:08:39.299,0,0,0,0,0,0,0,0,0,
2.11085, 10:08:39.342,0,0,0,0,0,0,0,0,0,
2.201692, 10:08:39.432,0,0,0,0,0,0,0,0,0,
2.315598, 10:08:39.546,0,0,0,0,0,0,0,0,0,
2.366156, 10:08:39.596,0,0,0,0,0,0,0,0,0,
2.437201, 10:08:39.664,0,0,0,0,0,0,0,0,0,
2.513524, 10:08:39.742,0,0,0,0,0,0,0,0,0,
2.56225, 10:08:39.791,0,0,0,0,0,0,0,0,0,
2.60709, 10:08:39.833,0,0,0,0,0,0,0,0,0,
2.644175, 10:08:39.871,0,0,0,0,0,0,0,0,0,
2.681094, 10:08:39.908,0,0,0,0,0,0,0,0,0,
2.722093, 10:08:39.949,0,0,0,0,0,0,0,0,0,
2.767158, 10:08:39.993,0,0,0,0,0,0,0,0,0,
2.804983, 10:08:40.032,0,0,0,0,0,0,0,0,0,
2.845495, 10:08:40.072,0,0,0,0,0,0,0,0,0,
2.883406, 10:08:40.110,0,0,0,0,0,0,0,0,0,
2.920726, 10:08:40.149,0,0,0,0,0,0,0,0,0,
2.957175, 10:08:40.183,0,0,0,0,0,0,0,0,0,
3.015977, 10:08:40.243,0,0,0,0,0,0,0,0,0,
3.06005, 10:08:40.287,0,0,0,0,0,0,0,0,0,
3.102226, 10:08:40.329,0,0,0,0,0,0,0,0,0,
3.153764, 10:08:40.381,0,0,0,0,0,0,0,0,0,
3.203203, 10:08:40.431,0,0,0,0,0,0,0,0,0,
3.248416, 10:08:40.476,0,0,0,0,0,0,0,0,0,
3.289735, 10:08:40.516,0,0,0,0,0,0,0,0,0,
3.326639, 10:08:40.553,0,0,0,0,0,0,0,0,0,
3.360673, 10:08:40.588,0,0,0,0,0,0,0,0,0,
3.401161, 10:08:40.628,0,0,0,0,0,0,0,0,0,
3.441077, 10:08:40.668,0,0,0,0,0,0,0,0,0,
3.482349, 10:08:40.710,0,0,0,0,0,0,0,0,0,
3.522567, 10:08:40.749,0,0,0,0,0,0,0,0,0,
3.569126, 10:08:40.797,0,0,0,0,0,0,0,0,0,
3.610144, 10:08:40.837,0,0,0,0,0,0,0,0,0,
3.646379, 10:08:40.872,0,0,0,0,0,0,0,0,0,
3.682223, 10:08:40.908,0,0,0,0,0,0,0,0,0,
3.720769, 10:08:40.947,0,0,0,0,0,0,0,0,0,
3.761627, 10:08:40.988,0,0,0,0,0,0,0,0,0,
3.812554, 10:08:41.040,0,0,0,0,0,0,0,0,0,
3.847963, 10:08:41.075,0,0,0,0,0,0,0,0,0,
3.891351, 10:08:41.118,0,0,0,0,0,0,0,0,0,
3.93036, 10:08:41.157,0,0,0,0,0,0,0,0,0,
3.966698, 10:08:41.193,0,0,0,0,0,0,0,0,0,
4.001097, 10:08:41.228,0,0,0,0,0,0,0,0,0,
4.040174, 10:08:41.267,0,0,0,0,0,0,0,0,0,
4.08296, 10:08:41.310,0,0,0,0,0,0,0,0,0,
4.120291, 10:08:41.347,0,0,0,0,0,0,0,0,0,
4.155806, 10:08:41.382,0,0,0,0,0,0,0,0,0,
4.196431, 10:08:41.423,0,0,0,0,0,0,0,0,0,
4.23517, 10:08:41.461,0,0,0,0,0,0,0,0,0,
4.274353, 10:08:41.502,0,0,0,0,0,0,0,0,0,
4.322612, 10:08:41.551,0,0,0,0,0,0,0,0,0,
4.38032, 10:08:41.609,0,0,0,0,0,0,0,0,0,
4.433706, 10:08:41.662,0,0,0,0,0,0,0,0,0,
4.473179, 10:08:41.699,0,0,0,0,0,0,0,0,0,
4.510811, 10:08:41.737,0,0,0,0,0,0,0,0,0,
4.549907, 10:08:41.778,0,0,0,0,0,0,0,0,0,
4.589939, 10:08:41.816,0,0,0,0,0,0,0,0,0,
4.626503, 10:08:41.853,0,0,0,0,0,0,0,0,0,
4.666453, 10:08:41.893,0,0,0,0,0,0,0,0,0,
4.705341, 10:08:41.932,0,0,0,0,0,0,0,0,0,
4.741222, 10:08:41.968,0,0,0,0,0,0,0,0,0,
4.775328, 10:08:42.001,0,0,0,0,0,0,0,0,0,
4.811749, 10:08:42.039,0,0,0,0,0,0,0,0,0,
4.856966, 10:08:42.084,0,0,0,0,0,0,0,0,0,
4.900396, 10:08:42.128,0,0,0,0,0,0,0,0,0,
4.935362, 10:08:42.161,0,0,0,0,0,0,0,0,0,
4.968343, 10:08:42.195,0,0,0,0,0,0,0,0,0,
5.008036, 10:08:42.234,0,0,0,0,0,0,0,0,0,
5.046083, 10:08:42.273,0,0,0,0,0,0,0,0,0,
5.086339, 10:08:42.314,0,0,0,0,0,0,0,0,0,
5.122094, 10:08:42.349,0,0,0,0,0,0,0,0,0,
5.165216, 10:08:42.392,0,0,0,0,0,0,0,0,0,
5.212632, 10:08:42.440,0,0,0,0,0,0,0,0,0,
5.256035, 10:08:42.482,0,0,0,0,0,0,0,0,0,
5.292624, 10:08:42.520,0,0,0,0,0,0,0,0,0,
5.336299, 10:08:42.563,0,0,0,0,0,0,0,0,0,
5.373796, 10:08:42.601,0,0,0,0,0,0,0,0,0,
5.409032, 10:08:42.636,0,0,0,0,0,0,0,0,0,
5.446601, 10:08:42.675,0,0,0,0,0,0,0,0,0,
5.503026, 10:08:42.733,0,0,0,0,0,0,0,0,0,
5.556283, 10:08:42.782,0,0,0,0,0,0,0,0,0,
5.595992, 10:08:42.823,0,0,0,0,0,0,0,0,0,
5.632478, 10:08:42.860,0,0,0,0,0,0,0,0,0,
5.67087, 10:08:42.897,0,0,0,0,0,0,0,0,0,
5.707815, 10:08:42.934,0,0,0,0,0,0,0,0,0,
5.7458, 10:08:42.973,0,0,0,0,0,0,0,0,0,
5.78518, 10:08:43.013,0,0,0,0,0,0,0,0,0,
5.826566, 10:08:43.053,0,0,0,0,0,0,0,0,0,
5.866413, 10:08:43.093,0,0,0,0,0,0,0,0,0,
5.900023, 10:08:43.126,0,0,0,0,0,0,0,0,0,
5.935371, 10:08:43.161,0,0,0,0,0,0,0,0,0,
5.974328, 10:08:43.202,0,0,0,0,0,0,0,0,0,
6.015215, 10:08:43.243,0,0,0,0,0,0,0,0,0,
6.049955, 10:08:43.277,0,0,0,0,0,0,0,0,0,
6.084443, 10:08:43.312,0,0,0,0,0,0,0,0,0,
6.129666, 10:08:43.356,0,0,0,0,0,0,0,0,0,
6.16991, 10:08:43.396,0,0,0,0,0,0,0,0,0,
6.213656, 10:08:43.440,0,0,0,0,0,0,0,0,0,
6.247829, 10:08:43.475,0,0,0,0,0,0,0,0,0,
6.286164, 10:08:43.513,0,0,0,0,0,0,0,0,0,
6.325985, 10:08:43.554,0,0,0,0,0,0,0,0,0,
6.366642, 10:08:43.594,0,0,0,0,0,0,0,0,0,
6.402166, 10:08:43.631,0,0,0,0,0,0,0,0,0,
6.444858, 10:08:43.672,0,0,0,0,0,0,0,0,0,
6.489973, 10:08:43.718,0,0,0,0,0,0,0,0,0,
6.530065, 10:08:43.756,0,0,0,0,0,0,0,0,0,
6.566488, 10:08:43.794,0,0,0,0,0,0,0,0,0,
6.60402, 10:08:43.830,0,0,0,0,0,0,0,0,0,
6.651849, 10:08:43.880,0,0,0,0,0,0,0,0,0,
6.697048, 10:08:43.925,0,0,0,0,0,0,0,0,0,
6.742541, 10:08:43.971,0,0,0,0,0,0,0,0,0,
6.781191, 10:08:44.009,0,0,0,0,0,0,0,0,0,
6.820947, 10:08:44.048,0,0,0,0,0,0,0,0,0,
6.860949, 10:08:44.087,0,0,0,0,0,0,0,0,0,
6.897964, 10:08:44.124,0,0,0,0,0,0,0,0,0,
6.932127, 10:08:44.159,0,0,0,0,0,0,0,0,0,
6.970567, 10:08:44.197,0,0,0,0,0,0,0,0,0,
7.010556, 10:08:44.238,0,0,0,0,0,0,0,0,0,
7.043862, 10:08:44.271,0,0,0,0,0,0,0,0,0,
7.080242, 10:08:44.308,0,0,0,0,0,0,0,0,0,
7.120708, 10:08:44.347,0,0,0,0,0,0,0,0,0,
7.160929, 10:08:44.388,0,0,0,0,0,0,0,0,0,
7.198905, 10:08:44.424,0,0,0,0,0,0,0,0,0,
7.233875, 10:08:44.461,0,0,0,0,0,0,0,0,0,
7.26919, 10:08:44.497,0,0,0,0,0,0,0,0,0,
7.309098, 10:08:44.536,0,0,0,0,0,0,0,0,0,
7.35062, 10:08:44.578,0,0,0,0,0,0,0,0,0,
7.38993, 10:08:44.618,0,0,0,0,0,0,0,0,0,
7.426446, 10:08:44.653,0,0,0,0,0,0,0,0,0,
7.46392, 10:08:44.691,0,0,0,0,0,0,0,0,0,
7.509112, 10:08:44.736,0,0,0,0,0,0,0,0,0,
7.548324, 10:08:44.775,0,0,0,0,0,0,0,0,0,
7.584548, 10:08:44.812,0,0,0,0,0,0,0,0,0,
7.619929, 10:08:44.845,0,0,0,0,0,0,0,0,0,
7.659232, 10:08:44.885,0,0,0,0,0,0,0,0,0,
7.699083, 10:08:44.926,0,0,0,0,0,0,0,0,0,
7.736534, 10:08:44.963,0,0,0,0,0,0,0,0,0,
7.774678, 10:08:45.001,0,0,0,0,0,0,0,0,0,
7.818299, 10:08:45.046,0,0,0,0,0,0,0,0,0,
7.869953, 10:08:45.099,0,0,0,0,0,0,0,0,0,
7.911449, 10:08:45.140,0,0,0,0,0,0,0,0,0,
7.951179, 10:08:45.179,0,0,0,0,0,0,0,0,0,
7.992762, 10:08:45.219,0,0,0,0,0,0,0,0,0,
8.030434, 10:08:45.257,0,0,0,0,0,0,0,0,0,
8.066727, 10:08:45.294,0,0,0,0,0,0,0,0,0,
8.102247, 10:08:45.329,0,0,0,0,0,0,0,0,0,
8.145227, 10:08:45.372,0,0,0,0,0,0,0,0,0,
8.183144, 10:08:45.411,0,0,0,0,0,0,0,0,0,
8.22133, 10:08:45.448,0,0,0,0,0,0,0,0,0,
8.258162, 10:08:45.484,0,0,0,0,0,0,0,0,0,
8.314451, 10:08:45.542,0,0,0,0,0,0,0,0,0,
8.358565, 10:08:45.586,0,0,0,0,0,0,0,0,0,
8.398861, 10:08:45.628,0,0,0,0,0,0,0,0,0,
8.448355, 10:08:45.678,0,0,0,0,0,0,0,0,0,
8.493636, 10:08:45.720,0,0,0,0,0,0,0,0,0,
8.534487, 10:08:45.763,0,0,0,0,0,0,0,0,0,
8.574126, 10:08:45.803,0,0,0,0,0,0,0,0,0,
8.615082, 10:08:45.842,0,0,0,0,0,0,0,0,0,
8.656415, 10:08:45.883,0,0,0,0,0,0,0,0,0,
8.694563, 10:08:45.921,0,0,0,0,0,0,0,0,0,
8.730399, 10:08:45.957,0,0,0,0,0,0,0,0,0,
8.772471, 10:08:45.999,0,0,0,0,0,0,0,0,0,
8.81505, 10:08:46.043,0,0,0,0,0,0,0,0,0,
8.86178, 10:08:46.088,0,0,0,0,0,0,0,0,0,
8.904836, 10:08:46.132,0,0,0,0,0,0,0,0,0,
8.950711, 10:08:46.180,0,0,0,0,0,0,0,0,0,
9.000302, 10:08:46.230,0,0,0,0,0,0,0,0,0,
9.053382, 10:08:46.280,0,0,0,0,0,0,0,0,0,
9.094168, 10:08:46.321,0,0,0,0,0,0,0,0,0,
9.142435, 10:08:46.370,0,0,0,0,0,0,0,0,0,
9.188148, 10:08:46.415,0,0,0,0,0,0,0,0,0,
9.226026, 10:08:46.453,0,0,0,0,0,0,0,0,0,
9.273564, 10:08:46.500,0,0,0,0,0,0,0,0,0,
9.334495, 10:08:46.563,0,0,0,0,0,0,0,0,0,
9.383049, 10:08:46.612,0,0,0,0,0,0,0,0,0,
9.422264, 10:08:46.649,0,0,0,0,0,0,0,0,0,
9.456448, 10:08:46.683,0,0,0,0,0,0,0,0,0,
9.49902, 10:08:46.726,0,0,0,0,0,0,0,0,0,
9.539364, 10:08:46.766,0,0,0,0,0,0,0,0,0,
9.578236, 10:08:46.804,0,0,0,0,0,0,0,0,0,
9.61154, 10:08:46.840,0,0,0,0,0,0,0,0,0,
9.655311, 10:08:46.881,0,0,0,0,0,0,0,0,0,
9.707044, 10:08:46.934,0,0,0,0,0,0,0,0,0,
9.7563, 10:08:46.983,0,0,0,0,0,0,0,0,0,
9.819439, 10:08:47.049,0,0,0,0,0,0,0,0,0,
9.871369, 10:08:47.119,0,0,0,0,0,0,0,0,0,
9.93926, 10:08:47.167,0,0,0,0,0,0,0,0,0,
9.976659, 10:08:47.204,0,0,0,0,0,0,0,0,0,
10.01472, 10:08:47.241,0,0,0,0,0,0,0,0,0,
10.05908, 10:08:47.286,0,0,0,0,0,0,0,0,0,
10.09772, 10:08:47.326,0,0,0,0,0,0,0,0,0,
10.13881, 10:08:47.366,0,0,0,0,0,0,0,0,0,
10.18807, 10:08:47.417,0,0,0,0,0,0,0,0,0,
10.234, 10:08:47.462,0,0,0,0,0,0,0,0,0,
10.27368, 10:08:47.500,0,0,0,0,0,0,0,0,0,
10.3112, 10:08:47.540,0,0,0,0,0,0,0,0,0,
10.35381, 10:08:47.581,0,0,0,0,0,0,0,0,0,
10.39239, 10:08:47.620,0,0,0,0,0,0,0,0,0,
10.43671, 10:08:47.663,0,0,0,0,0,0,0,0,0,
10.48194, 10:08:47.711,0,0,0,0,0,0,0,0,0,
10.53395, 10:08:47.761,0,0,0,0,0,0,0,0,0,
10.57186, 10:08:47.798,0,0,0,0,0,0,0,0,0,
10.66228, 10:08:47.893,0,0,0,0,0,0,0,0,0,
10.74448, 10:08:47.972,0,0,0,0,0,0,0,0,0,
10.78789, 10:08:48.015,0,0,0,0,0,0,0,0,0,
10.82344, 10:08:48.050,0,0,0,0,0,0,0,0,0,
10.86121, 10:08:48.089,0,0,0,0,0,0,0,0,0,
10.90002, 10:08:48.127,0,0,0,0,0,0,0,0,0,
10.93979, 10:08:48.166,0,0,0,0,0,0,0,0,0,
10.9758, 10:08:48.202,0,0,0,0,0,0,0,0,0,
11.01707, 10:08:48.244,0,0,0,0,0,0,0,0,0,
11.06792, 10:08:48.296,0,0,0,0,0,0,0,0,0,
11.11656, 10:08:48.343,0,0,0,0,0,0,0,0,0,
11.15939, 10:08:48.387,0,0,0,0,0,0,0,0,0,
11.19889, 10:08:48.427,0,0,0,0,0,0,0,0,0,
11.24046, 10:08:48.469,0,0,0,0,0,0,0,0,0,
11.28691, 10:08:48.515,0,0,0,0,0,0,0,0,0,
11.33239, 10:08:48.561,0,0,0,0,0,0,0,0,0,
11.38972, 10:08:48.618,0,0,0,0,0,0,0,0,0,
11.43588, 10:08:48.663,0,0,0,0,0,0,0,0,0,
11.47459, 10:08:48.702,0,0,0,0,0,0,0,0,0,
11.51015, 10:08:48.737,0,0,0,0,0,0,0,0,0,
11.5485, 10:08:48.775,0,0,0,0,0,0,0,0,0,
11.59497, 10:08:48.822,0,0,0,0,0,0,0,0,0,
11.6366, 10:08:48.862,0,0,0,0,0,0,0,0,0,
11.67992, 10:08:48.906,0,0,0,0,0,0,0,0,0,
11.72668, 10:08:48.954,0,0,0,0,0,0,0,0,0,
11.77077, 10:08:48.998,0,0,0,0,0,0,0,0,0,
11.81418, 10:08:49.042,0,0,0,0,0,0,0,0,0,
11.8569, 10:08:49.085,0,0,0,0,0,0,0,0,0,
11.90589, 10:08:49.135,0,0,0,0,0,0,0,0,0,
11.95017, 10:08:49.201,0,0,0,0,0,0,0,0,0,
12.00909, 10:08:49.236,0,0,0,0,0,0,0,0,0,
12.05405, 10:08:49.282,0,0,0,0,0,0,0,0,0,
12.09721, 10:08:49.323,0,0,0,0,0,0,0,0,0,
12.13281, 10:08:49.360,0,0,0,0,0,0,0,0,0,
12.16933, 10:08:49.396,0,0,0,0,0,0,0,0,0,
12.21564, 10:08:49.443,0,0,0,0,0,0,0,0,0,
12.26377, 10:08:49.493,0,0,0,0,0,0,0,0,0,
12.30289, 10:08:49.529,0,0,0,0,0,0,0,0,0,
12.34842, 10:08:49.575,0,0,0,0,0,0,0,0,0,
12.39381, 10:08:49.621,0,0,0,0,0,0,0,0,0,
12.44091, 10:08:49.670,0,0,0,0,0,0,0,0,0,
12.49067, 10:08:49.719,0,0,0,0,0,0,0,0,0,
12.54433, 10:08:49.773,0,0,0,0,0,0,0,0,0,
12.59099, 10:08:49.818,0,0,0,0,0,0,0,0,0,
12.62913, 10:08:49.856,0,0,0,0,0,0,0,0,0,
12.66504, 10:08:49.893,0,0,0,0,0,0,0,0,0,
12.71139, 10:08:49.939,0,0,0,0,0,0,0,0,0,
12.75678, 10:08:49.983,0,0,0,0,0,0,0,0,0,
12.79368, 10:08:50.020,0,0,0,0,0,0,0,0,0,
12.83634, 10:08:50.063,0,0,0,0,0,0,0,0,0,
12.87793, 10:08:50.105,0,0,0,0,0,0,0,0,0,
12.94126, 10:08:50.171,0,0,0,0,0,0,0,0,0,
13.01491, 10:08:50.243,0,0,0,0,0,0,0,0,0,
13.0503, 10:08:50.277,0,0,0,0,0,0,0,0,0,
13.08892, 10:08:50.317,0,0,0,0,0,0,0,0,0,
13.12864, 10:08:50.356,0,0,0,0,0,0,0,0,0,
13.1715, 10:08:50.398,0,0,0,0,0,0,0,0,0,
13.22582, 10:08:50.454,0,0,0,0,0,0,0,0,0,
13.28211, 10:08:50.510,0,0,0,0,0,0,0,0,0,
13.33716, 10:08:50.563,0,0,0,0,0,0,0,0,0,
13.38902, 10:08:50.616,0,0,0,0,0,0,0,0,0,
13.43642, 10:08:50.663,0,0,0,0,0,0,0,0,0,
13.47681, 10:08:50.703,0,0,0,0,0,0,0,0,0,
13.513, 10:08:50.738,0,0,0,0,0,0,0,0,0,
13.54701, 10:08:50.773,0,0,0,0,0,0,0,0,0,
13.58564, 10:08:50.812,0,0,0,0,0,0,0,0,0,
13.6283, 10:08:50.857,0,0,0,0,0,0,0,0,0,
13.67049, 10:08:50.900,0,0,0,0,0,0,0,0,0,
13.71907, 10:08:50.946,0,0,0,0,0,0,0,0,0,
13.75881, 10:08:50.986,0,0,0,0,0,0,0,0,0,
13.7972, 10:08:51.025,0,0,0,0,0,0,0,0,0,
13.83571, 10:08:51.063,0,0,0,0,0,0,0,0,0,
13.87835, 10:08:51.105,0,0,0,0,0,0,0,0,0,
13.92967, 10:08:51.157,0,0,0,0,0,0,0,0,0,
13.96963, 10:08:51.197,0,0,0,0,0,0,0,0,0,
14.01593, 10:08:51.242,0,0,0,0,0,0,0,0,0,
14.05673, 10:08:51.283,0,0,0,0,0,0,0,0,0,
14.10381, 10:08:51.332,0,0,0,0,0,0,0,0,0,
14.14834, 10:08:51.376,0,0,0,0,0,0,0,0,0,
14.19078, 10:08:51.419,0,0,0,0,0,0,0,0,0,
14.2355, 10:08:51.463,0,0,0,0,0,0,0,0,0,
14.28282, 10:08:51.511,0,0,0,0,0,0,0,0,0,
14.32769, 10:08:51.554,0,0,0,0,0,0,0,0,0,
14.36791, 10:08:51.596,0,0,0,0,0,0,0,0,0,
14.41188, 10:08:51.639,0,0,0,0,0,0,0,0,0,
14.46996, 10:08:51.699,0,0,0,0,0,0,0,0,0,
14.52741, 10:08:51.755,0,0,0,0,0,0,0,0,0,
14.57882, 10:08:51.806,0,0,0,0,0,0,0,0,0,
14.63323, 10:08:51.861,0,0,0,0,0,0,0,0,0,
14.6922, 10:08:51.920,0,0,0,0,0,0,0,0,0,
14.74735, 10:08:51.974,0,0,0,0,0,0,0,0,0,
14.81083, 10:08:52.039,0,0,0,0,0,0,0,0,0,
14.88764, 10:08:52.117,0,0,0,0,0,0,0,0,0,
14.93038, 10:08:52.160,0,0,0,0,0,0,0,0,0,
14.97617, 10:08:52.203,0,0,0,0,0,0,0,0,0,
15.01291, 10:08:52.240,0,0,0,0,0,0,0,0,0,
15.04622, 10:08:52.273,0,0,0,0,0,0,0,0,0,
15.08074, 10:08:52.308,0,0,0,0,0,0,0,0,0,
15.12703, 10:08:52.353,0,0,0,0,0,0,0,0,0,
15.17369, 10:08:52.400,0,0,0,0,0,0,0,0,0,
15.21272, 10:08:52.440,0,0,0,0,0,0,0,0,0,
15.25604, 10:08:52.482,0,0,0,0,0,0,0,0,0,
15.30555, 10:08:52.533,0,0,0,0,0,0,0,0,0,
15.34951, 10:08:52.577,0,0,0,0,0,0,0,0,0,
15.40133, 10:08:52.630,0,0,0,0,0,0,0,0,0,
15.44011, 10:08:52.668,0,0,0,0,0,0,0,0,0,
15.48439, 10:08:52.711,0,0,0,0,0,0,0,0,0,
15.52707, 10:08:52.753,0,0,0,0,0,0,0,0,0,
15.57234, 10:08:52.799,0,0,0,0,0,0,0,0,0,
15.61708, 10:08:52.844,0,0,0,0,0,0,0,0,0,
15.66068, 10:08:52.888,0,0,0,0,0,0,0,0,0,
15.7048, 10:08:52.932,0,0,0,0,0,0,0,0,0,
15.7467, 10:08:52.974,0,0,0,0,0,0,0,0,0,
15.78992, 10:08:53.016,0,0,0,0,0,0,0,0,0,
15.84001, 10:08:53.067,0,0,0,0,0,0,0,0,0,
15.88549, 10:08:53.112,0,0,0,0,0,0,0,0,0,
15.92743, 10:08:53.155,0,0,0,0,0,0,0,0,0,
15.97199, 10:08:53.200,0,0,0,0,0,0,0,0,0,
16.0218, 10:08:53.250,0,0,0,0,0,0,0,0,0,
16.1577, 10:08:53.390,0,0,0,0,0,0,0,0,0,
16.21324, 10:08:53.441,0,0,0,0,0,0,0,0,0,
16.25326, 10:08:53.481,0,0,0,0,0,0,0,0,0,
16.29293, 10:08:53.520,0,0,0,0,0,0,0,0,0,
16.32998, 10:08:53.556,0,0,0,0,0,0,0,0,0,
16.37181, 10:08:53.598,0,0,0,0,0,0,0,0,0,
16.427, 10:08:53.656,0,0,0,0,0,0,0,0,0,
16.47298, 10:08:53.701,0,0,0,0,0,0,0,0,0,
16.515, 10:08:53.742,0,0,0,0,0,0,0,0,0,
16.55438, 10:08:53.782,0,0,0,0,0,0,0,0,0,
16.59245, 10:08:53.819,0,0,0,0,0,0,0,0,0,
16.64103, 10:08:53.869,0,0,0,0,0,0,0,0,0,
16.68953, 10:08:53.917,0,0,0,0,0,0,0,0,0,
16.73525, 10:08:53.963,0,0,0,0,0,0,0,0,0,
16.77545, 10:08:54.002,0,0,0,0,0,0,0,0,0,
16.81245, 10:08:54.040,0,0,0,0,0,0,0,0,0,
16.85726, 10:08:54.084,0,0,0,0,0,0,0,0,0,
16.90524, 10:08:54.133,0,0,0,0,0,0,0,0,0,
16.95509, 10:08:54.182,0,0,0,0,0,0,0,0,0,
16.99187, 10:08:54.218,0,0,0,0,0,0,0,0,0,
17.03415, 10:08:54.262,0,0,0,0,0,0,0,0,0,
17.08254, 10:08:54.311,0,0,0,0,0,0,0,0,0,
17.1292, 10:08:54.357,0,0,0,0,0,0,0,0,0,
17.18839, 10:08:54.417,0,0,0,0,0,0,0,0,0,
17.23078, 10:08:54.459,0,0,0,0,0,0,0,0,0,
17.27169, 10:08:54.498,0,0,0,0,0,0,0,0,0,
17.31156, 10:08:54.538,0,0,0,0,0,0,0,0,0,
17.34908, 10:08:54.576,0,0,0,0,0,0,0,0,0,
17.3945, 10:08:54.621,0,0,0,0,0,0,0,0,0,
17.43864, 10:08:54.667,0,0,0,0,0,0,0,0,0,
17.48266, 10:08:54.711,0,0,0,0,0,0,0,0,0,
17.52296, 10:08:54.749,0,0,0,0,0,0,0,0,0,
17.57103, 10:08:54.800,0,0,0,0,0,0,0,0,0,
17.6168, 10:08:54.844,0,0,0,0,0,0,0,0,0,
17.70085, 10:08:54.930,0,0,0,0,0,0,0,0,0,
17.75758, 10:08:54.984,0,0,0,0,0,0,0,0,0,
17.79976, 10:08:55.027,0,0,0,0,0,0,0,0,0,
17.83743, 10:08:55.064,0,0,0,0,0,0,0,0,0,
17.87101, 10:08:55.098,0,0,0,0,0,0,0,0,0,
17.90975, 10:08:55.136,0,0,0,0,0,0,0,0,0,
17.95063, 10:08:55.177,0,0,0,0,0,0,0,0,0,
17.99288, 10:08:55.221,0,0,0,0,0,0,0,0,0,
18.03441, 10:08:55.261,0,0,0,0,0,0,0,0,0,
18.08444, 10:08:55.311,0,0,0,0,0,0,0,0,0,
18.1256, 10:08:55.352,0,0,0,0,0,0,0,0,0,
18.16909, 10:08:55.397,0,0,0,0,0,0,0,0,0,
18.2108, 10:08:55.438,0,0,0,0,0,0,0,0,0,
18.26203, 10:08:55.491,0,0,0,0,0,0,0,0,0,
18.31903, 10:08:55.548,0,0,0,0,0,0,0,0,0,
18.36417, 10:08:55.593,0,0,0,0,0,0,0,0,0,
18.40756, 10:08:55.635,0,0,0,0,0,0,0,0,0,
18.45536, 10:08:55.682,0,0,0,0,0,0,0,0,0,
18.50323, 10:08:55.730,0,0,0,0,0,0,0,0,0,
18.54529, 10:08:55.772,0,0,0,0,0,0,0,0,0,
18.58642, 10:08:55.815,0,0,0,0,0,0,0,0,0,
18.62953, 10:08:55.857,0,0,0,0,0,0,0,0,0,
18.66668, 10:08:55.894,0,0,0,0,0,0,0,0,0,
18.70415, 10:08:55.931,0,0,0,0,0,0,0,0,0,
18.75497, 10:08:55.983,0,0,0,0,0,0,0,0,0,
18.7965, 10:08:56.024,0,0,0,0,0,0,0,0,0,
18.83725, 10:08:56.063,0,0,0,0,0,0,0,0,0,
18.87729, 10:08:56.104,0,0,0,0,0,0,0,0,0,
18.92811, 10:08:56.156,0,0,0,0,0,0,0,0,0,
18.97452, 10:08:56.215,0,0,0,0,0,0,0,0,0,
19.03312, 10:08:56.265,0,0,0,0,0,0,0,0,0,
19.09153, 10:08:56.321,0,0,0,0,0,0,0,0,0,
19.1446, 10:08:56.374,0,0,0,0,0,0,0,0,0,
19.19425, 10:08:56.420,0,0,0,0,0,0,0,0,0,
19.23604, 10:08:56.462,0,0,0,0,0,0,0,0,0,
19.27479, 10:08:56.501,0,0,0,0,0,0,0,0,0,
19.30991, 10:08:56.537,0,0,0,0,0,0,0,0,0,
19.34658, 10:08:56.573,0,0,0,0,0,0,0,0,0,
19.39398, 10:08:56.621,0,0,0,0,0,0,0,0,0,
19.44192, 10:08:56.672,0,0,0,0,0,0,0,0,0,
19.49136, 10:08:56.720,0,0,0,0,0,0,0,0,0,
19.53568, 10:08:56.763,0,0,0,0,0,0,0,0,0,
19.57634, 10:08:56.802,0,0,0,0,0,0,0,0,0,
19.61613, 10:08:56.842,0,0,0,0,0,0,0,0,0,
19.65749, 10:08:56.883,0,0,0,0,0,0,0,0,0,
19.70255, 10:08:56.930,0,0,0,0,0,0,0,0,0,
19.82097, 10:08:57.051,0,0,0,0,0,0,0,0,0,
19.87582, 10:08:57.102,0,0,0,0,0,0,0,0,0,
19.91932, 10:08:57.147,0,0,0,0,0,0,0,0,0,
19.95858, 10:08:57.186,0,0,0,0,0,0,0,0,0,
19.99388, 10:08:57.222,0,0,0,0,0,0,0,0,0,
20.0305, 10:08:57.257,0,0,0,0,0,0,0,0,0,
20.07533, 10:08:57.302,0,0,0,0,0,0,0,0,0,
20.11514, 10:08:57.342,0,0,0,0,0,0,0,0,0,
20.15303, 10:08:57.380,0,0,0,0,0,0,0,0,0,
20.19017, 10:08:57.417,0,0,0,0,0,0,0,0,0,
20.23661, 10:08:57.464,0,0,0,0,0,0,0,0,0,
20.28419, 10:08:57.514,0,0,0,0,0,0,0,0,0,
20.33011, 10:08:57.558,0,0,0,0,0,0,0,0,0,
20.36624, 10:08:57.594,0,0,0,0,0,0,0,0,0,
20.41525, 10:08:57.642,0,0,0,0,0,0,0,0,0,
20.46042, 10:08:57.688,0,0,0,0,0,0,0,0,0,
20.50282, 10:08:57.730,0,0,0,0,0,0,0,0,0,
20.54629, 10:08:57.773,0,0,0,0,0,0,0,0,0,
20.60624, 10:08:57.835,0,0,0,0,0,0,0,0,0,
20.67113, 10:08:57.899,0,0,0,0,0,0,0,0,0,
20.71271, 10:08:57.940,0,0,0,0,0,0,0,0,0,
20.75021, 10:08:57.977,0,0,0,0,0,0,0,0,0,
20.78791, 10:08:58.014,0,0,0,0,0,0,0,0,0,
20.82219, 10:08:58.049,0,0,0,0,0,0,0,0,0,
20.85799, 10:08:58.083,0,0,0,0,0,0,0,0,0,
20.89936, 10:08:58.127,0,0,0,0,0,0,0,0,0,
20.95012, 10:08:58.178,0,0,0,0,0,0,0,0,0,
20.99144, 10:08:58.218,0,0,0,0,0,0,0,0,0,
21.03423, 10:08:58.263,0,0,0,0,0,0,0,0,0,
21.07843, 10:08:58.306,0,0,0,0,0,0,0,0,0,
21.12726, 10:08:58.355,0,0,0,0,0,0,0,0,0,
21.17356, 10:08:58.400,0,0,0,0,0,0,0,0,0,
21.21201, 10:08:58.438,0,0,0,0,0,0,0,0,0,
21.25516, 10:08:58.482,0,0,0,0,0,0,0,0,0,
21.3038, 10:08:58.531,0,0,0,0,0,0,0,0,0,
21.35049, 10:08:58.578,0,0,0,0,0,0,0,0,0,
21.39249, 10:08:58.620,0,0,0,0,0,0,0,0,0,
21.43387, 10:08:58.661,0,0,0,0,0,0,0,0,0,
21.48301, 10:08:58.712,0,0,0,0,0,0,0,0,0,
21.52416, 10:08:58.751,0,0,0,0,0,0,0,0,0,
21.56748, 10:08:58.797,0,0,0,0,0,0,0,0,0,
21.6126, 10:08:58.840,0,0,0,0,0,0,0,0,0,
21.65982, 10:08:58.887,0,0,0,0,0,0,0,0,0,
21.7041, 10:08:58.931,0,0,0,0,0,0,0,0,0,
21.74983, 10:08:58.977,0,0,0,0,0,0,0,0,0,
21.79176, 10:08:59.020,0,0,0,0,0,0,0,0,0,
21.84438, 10:08:59.073,0,0,0,0,0,0,0,0,0,
21.88415, 10:08:59.111,0,0,0,0,0,0,0,0,0,
21.92509, 10:08:59.152,0,0,0,0,0,0,0,0,0,
21.96593, 10:08:59.192,0,0,0,0,0,0,0,0,0,
22.01423, 10:08:59.242,0,0,0,0,0,0,0,0,0,
22.05972, 10:08:59.286,0,0,0,0,0,0,0,0,0,
22.10042, 10:08:59.328,0,0,0,0,0,0,0,0,0,
22.14356, 10:08:59.371,0,0,0,0,0,0,0,0,0,
22.19252, 10:08:59.420,0,0,0,0,0,0,0,0,0,
22.23672, 10:08:59.463,0,0,0,0,0,0,0,0,0,
22.28049, 10:08:59.509,0,0,0,0,0,0,0,0,0,
22.3227, 10:08:59.549,0,0,0,0,0,0,0,0,0,
22.3704, 10:08:59.598,0,0,0,0,0,0,0,0,0,
22.41471, 10:08:59.642,0,0,0,0,0,0,0,0,0,
22.45748, 10:08:59.685,0,0,0,0,0,0,0,0,0,
22.50213, 10:08:59.731,0,0,0,0,0,0,0,0,0,
22.54823, 10:08:59.776,0,0,0,0,0,0,0,0,0,
22.59249, 10:08:59.820,0,0,0,0,0,0,0,0,0,
22.63424, 10:08:59.863,0,0,0,0,0,0,0,0,0,
22.67859, 10:08:59.907,0,0,0,0,0,0,0,0,0,
22.73038, 10:08:59.958,0,0,0,0,0,0,0,0,0,
22.77052, 10:08:59.997,0,0,0,0,0,0,0,0,0,
22.81163, 10:09:00.038,0,0,0,0,0,0,0,0,0,
22.85528, 10:09:00.082,0,0,0,0,0,0,0,0,0,
22.90775, 10:09:00.137,0,0,0,0,0,0,0,0,0,
22.96138, 10:09:00.191,0,0,0,0,0,0,0,0,0,
23.00415, 10:09:00.231,0,0,0,0,0,0,0,0,0,
23.04456, 10:09:00.271,0,0,0,0,0,0,0,0,0,
23.0814, 10:09:00.309,0,0,0,0,0,0,0,0,0,
23.12366, 10:09:00.351,0,0,0,0,0,0,0,0,0,
23.16884, 10:09:00.396,0,0,0,0,0,0,0,0,0,
23.21056, 10:09:00.438,0,0,0,0,0,0,0,0,0,
23.25986, 10:09:00.488,0,0,0,0,0,0,0,0,0,
23.30274, 10:09:00.530,0,0,0,0,0,0,0,0,0,
23.34484, 10:09:00.571,0,0,0,0,0,0,0,0,0,
23.39001, 10:09:00.616,0,0,0,0,0,0,0,0,0,
23.43529, 10:09:00.662,0,0,0,0,0,0,0,0,0,
23.48197, 10:09:00.711,0,0,0,0,0,0,0,0,0,
23.5227, 10:09:00.750,0,0,0,0,0,0,0,0,0,
23.56614, 10:09:00.794,0,0,0,0,0,0,0,0,0,
23.61899, 10:09:00.846,0,0,0,0,0,0,0,0,0,
23.65829, 10:09:00.885,0,0,0,0,0,0,0,0,0,
23.70234, 10:09:00.930,0,0,0,0,0,0,0,0,0,
23.7438, 10:09:00.971,0,0,0,0,0,0,0,0,0,
23.79254, 10:09:01.020,0,0,0,0,0,0,0,0,0,
23.83842, 10:09:01.066,0,0,0,0,0,0,0,0,0,
23.87925, 10:09:01.106,0,0,0,0,0,0,0,0,0,
23.92365, 10:09:01.152,0,0,0,0,0,0,0,0,0,
23.96857, 10:09:01.196,0,0,0,0,0,0,0,0,0,
24.01354, 10:09:01.241,0,0,0,0,0,0,0,0,0,
24.06, 10:09:01.289,0,0,0,0,0,0,0,0,0,
24.10155, 10:09:01.329,0,0,0,0,0,0,0,0,0,
24.15479, 10:09:01.383,0,0,0,0,0,0,0,0,0,
24.1988, 10:09:01.426,0,0,0,0,0,0,0,0,0,
24.23435, 10:09:01.461,0,0,0,0,0,0,0,0,0,
24.28006, 10:09:01.510,0,0,0,0,0,0,0,0,0,
24.32477, 10:09:01.552,0,0,0,0,0,0,0,0,0,
24.36988, 10:09:01.596,0,0,0,0,0,0,0,0,0,
24.41157, 10:09:01.638,0,0,0,0,0,0,0,0,0,
24.45494, 10:09:01.681,0,0,0,0,0,0,0,0,0,
24.50445, 10:09:01.732,0,0,0,0,0,0,0,0,0,
24.54806, 10:09:01.775,0,0,0,0,0,0,0,0,0,
24.58977, 10:09:01.817,0,0,0,0,0,0,0,0,0,
24.63223, 10:09:01.860,0,0,0,0,0,0,0,0,0,
24.69069, 10:09:01.919,0,0,0,0,0,0,0,0,0,
24.73132, 10:09:01.957,0,0,0,0,0,0,0,0,0,
24.77043, 10:09:01.997,0,0,0,0,0,0,0,0,0,
24.80977, 10:09:02.037,0,0,0,0,0,0,0,0,0,
24.85923, 10:09:02.086,0,0,0,0,0,0,0,0,0,
24.90251, 10:09:02.130,0,0,0,0,0,0,0,0,0,
24.94829, 10:09:02.176,0,0,0,0,0,0,0,0,0,
24.9883, 10:09:02.215,0,0,0,0,0,0,0,0,0,
25.03516, 10:09:02.262,0,0,0,0,0,0,0,0,0,
25.07989, 10:09:02.307,0,0,0,0,0,0,0,0,0,
25.12285, 10:09:02.350,0,0,0,0,0,0,0,0,0,
25.168, 10:09:02.395,0,0,0,0,0,0,0,0,0,
25.21438, 10:09:02.442,0,0,0,0,0,0,0,0,0,
25.26297, 10:09:02.491,0,0,0,0,0,0,0,0,0,
25.30796, 10:09:02.536,0,0,0,0,0,0,0,0,0,
25.34563, 10:09:02.573,0,0,0,0,0,0,0,0,0,
25.39454, 10:09:02.623,0,0,0,0,0,0,0,0,0,
25.43537, 10:09:02.662,0,0,0,0,0,0,0,0,0,
25.47838, 10:09:02.706,0,0,0,0,0,0,0,0,0,
25.5207, 10:09:02.748,0,0,0,0,0,0,0,0,0,
25.56857, 10:09:02.797,0,0,0,0,0,0,0,0,0,
25.67735, 10:09:02.908,0,0,0,0,0,0,0,0,0,
25.72001, 10:09:02.949,0,0,0,0,0,0,0,0,0,
25.76138, 10:09:02.989,0,0,0,0,0,0,0,0,0,
25.79704, 10:09:03.023,0,0,0,0,0,0,0,0,0,
25.83369, 10:09:03.061,0,0,0,0,0,0,0,0,0,
25.88093, 10:09:03.109,0,0,0,0,0,0,0,0,0,
25.93242, 10:09:03.159,0,0,0,0,0,0,0,0,0,
25.96781, 10:09:03.194,0,0,0,0,0,0,0,0,0,
26.01016, 10:09:03.237,0,0,0,0,0,0,0,0,0,
26.05897, 10:09:03.285,0,0,0,0,0,0,0,0,0,
26.10217, 10:09:03.329,0,0,0,0,0,0,0,0,0,
26.15598, 10:09:03.382,0,0,0,0,0,0,0,0,0,
26.18976, 10:09:03.417,0,0,0,0,0,0,0,0,0,
26.23441, 10:09:03.462,0,0,0,0,0,0,0,0,0,
26.28206, 10:09:03.511,0,0,0,0,0,0,0,0,0,
26.32414, 10:09:03.552,0,0,0,0,0,0,0,0,0,
26.36588, 10:09:03.595,0,0,0,0,0,0,0,0,0,
26.4189, 10:09:03.648,0,0,0,0,0,0,0,0,0,
26.48045, 10:09:03.709,0,0,0,0,0,0,0,0,0,
26.52108, 10:09:03.748,0,0,0,0,0,0,0,0,0,
26.55827, 10:09:03.786,0,0,0,0,0,0,0,0,0,
26.59506, 10:09:03.821,0,0,0,0,0,0,0,0,0,
26.63303, 10:09:03.861,0,0,0,0,0,0,0,0,0,
26.67756, 10:09:03.904,0,0,0,0,0,0,0,0,0,
26.72487, 10:09:03.952,0,0,0,0,0,0,0,0,0,
26.7758, 10:09:04.003,0,0,0,0,0,0,0,0,0,
26.81399, 10:09:04.042,0,0,0,0,0,0,0,0,0,
26.85427, 10:09:04.082,0,0,0,0,0,0,0,0,0,
26.90135, 10:09:04.128,0,0,0,0,0,0,0,0,0,
26.94815, 10:09:04.174,0,0,0,0,0,0,0,0,0,
27.00114, 10:09:04.229,0,0,0,0,0,0,0,0,0,
27.03582, 10:09:04.261,0,0,0,0,0,0,0,0,0,
27.08002, 10:09:04.307,0,0,0,0,0,0,0,0,0,
27.12466, 10:09:04.352,0,0,0,0,0,0,0,0,0,
27.16815, 10:09:04.396,0,0,0,0,0,0,0,0,0,
27.21264, 10:09:04.439,0,0,0,0,0,0,0,0,0,
27.25817, 10:09:04.486,0,0,0,0,0,0,0,0,0,
27.30253, 10:09:04.530,0,0,0,0,0,0,0,0,0,
27.34418, 10:09:04.571,0,0,0,0,0,0,0,0,0,
27.40114, 10:09:04.629,0,0,0,0,0,0,0,0,0,
27.4437, 10:09:04.670,0,0,0,0,0,0,0,0,0,
27.48285, 10:09:04.710,0,0,0,0,0,0,0,0,0,
27.52124, 10:09:04.748,0,0,0,0,0,0,0,0,0,
27.56893, 10:09:04.796,0,0,0,0,0,0,0,0,0,
27.62971, 10:09:04.861,0,0,0,0,0,0,0,0,0,
27.67417, 10:09:04.901,0,0,0,0,0,0,0,0,0,
27.71288, 10:09:04.939,0,0,0,0,0,0,0,0,0,
27.74608, 10:09:04.972,0,0,0,0,0,0,0,0,0,
27.7905, 10:09:05.018,0,0,0,0,0,0,0,0,0,
27.83515, 10:09:05.062,0,0,0,0,0,0,0,0,0,
27.88066, 10:09:05.109,0,0,0,0,0,0,0,0,0,
27.92228, 10:09:05.150,0,0,0,0,0,0,0,0,0,
27.96805, 10:09:05.195,0,0,0,0,0,0,0,0,0,
28.01782, 10:09:05.246,0,0,0,0,0,0,0,0,0,
28.05521, 10:09:05.282,0,0,0,0,0,0,0,0,0,
28.10169, 10:09:05.329,0,0,0,0,0,0,0,0,0,
28.14689, 10:09:05.373,0,0,0,0,0,0,0,0,0,
28.19133, 10:09:05.419,0,0,0,0,0,0,0,0,0,
28.23341, 10:09:05.460,0,0,0,0,0,0,0,0,0,
28.27613, 10:09:05.502,0,0,0,0,0,0,0,0,0,
28.32769, 10:09:05.555,0,0,0,0,0,0,0,0,0,
28.37049, 10:09:05.598,0,0,0,0,0,0,0,0,0,
28.41146, 10:09:05.638,0,0,0,0,0,0,0,0,0,
28.45445, 10:09:05.682,0,0,0,0,0,0,0,0,0,
28.50196, 10:09:05.730,0,0,0,0,0,0,0,0,0,
28.54829, 10:09:05.775,0,0,0,0,0,0,0,0,0,
28.58957, 10:09:05.816,0,0,0,0,0,0,0,0,0,
28.63207, 10:09:05.859,0,0,0,0,0,0,0,0,0,
28.68233, 10:09:05.911,0,0,0,0,0,0,0,0,0,
28.72795, 10:09:05.956,0,0,0,0,0,0,0,0,0,
28.77027, 10:09:05.998,0,0,0,0,0,0,0,0,0,
28.81705, 10:09:06.045,0,0,0,0,0,0,0,0,0,
28.85902, 10:09:06.087,0,0,0,0,0,0,0,0,0,
28.90077, 10:09:06.129,0,0,0,0,0,0,0,0,0,
28.94304, 10:09:06.169,0,0,0,0,0,0,0,0,0,
28.989, 10:09:06.216,0,0,0,0,0,0,0,0,0,
29.03584, 10:09:06.262,0,0,0,0,0,0,0,0,0,
29.08046, 10:09:06.308,0,0,0,0,0,0,0,0,0,
29.12069, 10:09:06.348,0,0,0,0,0,0,0,0,0,
29.16548, 10:09:06.393,0,0,0,0,0,0,0,0,0,
29.21669, 10:09:06.443,0,0,0,0,0,0,0,0,0,
29.25822, 10:09:06.484,0,0,0,0,0,0,0,0,0,
29.31221, 10:09:06.540,0,0,0,0,0,0,0,0,0,
29.34751, 10:09:06.574,0,0,0,0,0,0,0,0,0,
29.39063, 10:09:06.618,0,0,0,0,0,0,0,0,0,
29.43677, 10:09:06.665,0,0,0,0,0,0,0,0,0,
29.47959, 10:09:06.708,0,0,0,0,0,0,0,0,0,
29.52025, 10:09:06.750,0,0,0,0,0,0,0,0,0,
29.57183, 10:09:06.799,0,0,0,0,0,0,0,0,0,
29.6125, 10:09:06.840,0,0,0,0,0,0,0,0,0,
29.65897, 10:09:06.886,0,0,0,0,0,0,0,0,0,
29.69991, 10:09:06.927,0,0,0,0,0,0,0,0,0,
29.75014, 10:09:06.978,0,0,0,0,0,0,0,0,0,
29.79994, 10:09:07.028,0,0,0,0,0,0,0,0,0,
29.83499, 10:09:07.062,0,0,0,0,0,0,0,0,0,
29.87969, 10:09:07.108,0,0,0,0,0,0,0,0,0,
29.92775, 10:09:07.157,0,0,0,0,0,0,0,0,0,
29.98016, 10:09:07.209,0,0,0,0,0,0,0,0,0,
30.01807, 10:09:07.244,0,0,0,0,0,0,0,0,0,
30.05291, 10:09:07.280,0,0,0,0,0,0,0,0,0,
30.10345, 10:09:07.331,0,0,0,0,0,0,0,0,0,
30.14631, 10:09:07.373,0,0,0,0,0,0,0,0,0,
30.18837, 10:09:07.415,0,0,0,0,0,0,0,0,0,
30.23162, 10:09:07.459,0,0,0,0,0,0,0,0,0,
30.27965, 10:09:07.507,0,0,0,0,0,0,0,0,0,
30.32655, 10:09:07.555,0,0,0,0,0,0,0,0,0,
30.36689, 10:09:07.594,0,0,0,0,0,0,0,0,0,
30.40983, 10:09:07.638,0,0,0,0,0,0,0,0,0,
30.45764, 10:09:07.685,0,0,0,0,0,0,0,0,0,
30.50163, 10:09:07.730,0,0,0,0,0,0,0,0,0,
30.54481, 10:09:07.771,0,0,0,0,0,0,0,0,0,
30.5869, 10:09:07.813,0,0,0,0,0,0,0,0,0,
30.63379, 10:09:07.861,0,0,0,0,0,0,0,0,0,
30.6812, 10:09:07.909,0,0,0,0,0,0,0,0,0,
30.72277, 10:09:07.949,0,0,0,0,0,0,0,0,0,
30.76871, 10:09:07.995,0,0,0,0,0,0,0,0,0,
30.81426, 10:09:08.041,0,0,0,0,0,0,0,0,0,
30.85671, 10:09:08.084,0,0,0,0,0,0,0,0,0,
30.90102, 10:09:08.129,0,0,0,0,0,0,0,0,0,
30.94243, 10:09:08.169,0,0,0,0,0,0,0,0,0,
30.99292, 10:09:08.219,0,0,0,0,0,0,0,0,0,
31.03726, 10:09:08.266,0,0,0,0,0,0,0,0,0,
31.08143, 10:09:08.311,0,0,0,0,0,0,0,0,0,
31.12792, 10:09:08.356,0,0,0,0,0,0,0,0,0,
31.17316, 10:09:08.400,0,0,0,0,0,0,0,0,0,
31.21578, 10:09:08.442,0,0,0,0,0,0,0,0,0,
31.25467, 10:09:08.482,0,0,0,0,0,0,0,0,0,
31.29938, 10:09:08.527,0,0,0,0,0,0,0,0,0,
31.34605, 10:09:08.576,0,0,0,0,0,0,0,0,0,
31.39146, 10:09:08.619,0,0,0,0,0,0,0,0,0,
31.43477, 10:09:08.662,0,0,0,0,0,0,0,0,0,
31.48078, 10:09:08.709,0,0,0,0,0,0,0,0,0,
31.52374, 10:09:08.750,0,0,0,0,0,0,0,0,0,
31.56829, 10:09:08.797,0,0,0,0,0,0,0,0,0,
31.61057, 10:09:08.838,0,0,0,0,0,0,0,0,0,
31.66025, 10:09:08.888,0,0,0,0,0,0,0,0,0,
31.70314, 10:09:08.930,0,0,0,0,0,0,0,0,0,
31.74598, 10:09:08.972,0,0,0,0,0,0,0,0,0,
31.78799, 10:09:09.014,0,0,0,0,0,0,0,0,0,
31.83198, 10:09:09.059,0,0,0,0,0,0,0,0,0,
31.88227, 10:09:09.110,0,0,0,0,0,0,0,0,0,
31.94402, 10:09:09.171,0,0,0,0,0,0,0,0,0,
31.98079, 10:09:09.207,0,0,0,0,0,0,0,0,0,
32.01412, 10:09:09.240,0,0,0,0,0,0,0,0,0,
32.05901, 10:09:09.287,0,0,0,0,0,0,0,0,0,
32.10273, 10:09:09.331,0,0,0,0,0,0,0,0,0,
32.14393, 10:09:09.371,0,0,0,0,0,0,0,0,0,
32.18805, 10:09:09.418,0,0,0,0,0,0,0,0,0,
32.23683, 10:09:09.464,0,0,0,0,0,0,0,0,0,
32.28774, 10:09:09.517,0,0,0,0,0,0,0,0,0,
32.33049, 10:09:09.558,0,0,0,0,0,0,0,0,0,
32.3657, 10:09:09.593,0,0,0,0,0,0,0,0,0,
32.4122, 10:09:09.638,0,0,0,0,0,0,0,0,0,
32.45653, 10:09:09.682,0,0,0,0,0,0,0,0,0,
32.50884, 10:09:09.737,0,0,0,0,0,0,0,0,0,
32.54454, 10:09:09.771,0,0,0,0,0,0,0,0,0,
32.58963, 10:09:09.816,0,0,0,0,0,0,0,0,0,
32.63353, 10:09:09.860,0,0,0,0,0,0,0,0,0,
32.67761, 10:09:09.904,0,0,0,0,0,0,0,0,0,
32.71945, 10:09:09.947,0,0,0,0,0,0,0,0,0,
32.77137, 10:09:10.001,0,0,0,0,0,0,0,0,0,
32.81388, 10:09:10.042,0,0,0,0,0,0,0,0,0,
32.85394, 10:09:10.082,0,0,0,0,0,0,0,0,0,
32.89874, 10:09:10.126,0,0,0,0,0,0,0,0,0,
32.95494, 10:09:10.183,0,0,0,0,0,0,0,0,0,
32.99594, 10:09:10.223,0,0,0,0,0,0,0,0,0,
33.03451, 10:09:10.261,0,0,0,0,0,0,0,0,0,
33.07634, 10:09:10.303,0,0,0,0,0,0,0,0,0,
33.12381, 10:09:10.351,0,0,0,0,0,0,0,0,0,
33.17032, 10:09:10.398,0,0,0,0,0,0,0,0,0,
33.21243, 10:09:10.440,0,0,0,0,0,0,0,0,0,
33.25385, 10:09:10.481,0,0,0,0,0,0,0,0,0,
33.30223, 10:09:10.530,0,0,0,0,0,0,0,0,0,
33.34658, 10:09:10.574,0,0,0,0,0,0,0,0,0,
33.39005, 10:09:10.618,0,0,0,0,0,0,0,0,0,
33.45045, 10:09:10.680,0,0,0,0,0,0,0,0,0,
33.49511, 10:09:10.723,0,0,0,0,0,0,0,0,0,
33.53246, 10:09:10.760,0,0,0,0,0,0,0,0,0,
33.56663, 10:09:10.794,0,0,0,0,0,0,0,0,0,
33.6097, 10:09:10.836,0,0,0,0,0,0,0,0,0,
33.65957, 10:09:10.887,0,0,0,0,0,0,0,0,0,
33.70066, 10:09:10.928,0,0,0,0,0,0,0,0,0,
33.7435, 10:09:10.970,0,0,0,0,0,0,0,0,0,
33.78626, 10:09:11.013,0,0,0,0,0,0,0,0,0,
33.83566, 10:09:11.063,0,0,0,0,0,0,0,0,0,
33.88154, 10:09:11.110,0,0,0,0,0,0,0,0,0,
33.92113, 10:09:11.148,0,0,0,0,0,0,0,0,0,
33.96494, 10:09:11.192,0,0,0,0,0,0,0,0,0,
34.01391, 10:09:11.240,0,0,0,0,0,0,0,0,0,
34.05619, 10:09:11.283,0,0,0,0,0,0,0,0,0,
34.10217, 10:09:11.330,0,0,0,0,0,0,0,0,0,
34.15461, 10:09:11.381,0,0,0,0,0,0,0,0,0,
34.19067, 10:09:11.418,0,0,0,0,0,0,0,0,0,
34.23508, 10:09:11.461,0,0,0,0,0,0,0,0,0,
34.27754, 10:09:11.504,0,0,0,0,0,0,0,0,0,
34.32244, 10:09:11.550,0,0,0,0,0,0,0,0,0,
34.36846, 10:09:11.596,0,0,0,0,0,0,0,0,0,
34.41669, 10:09:11.643,0,0,0,0,0,0,0,0,0,
34.45484, 10:09:11.682,0,0,0,0,0,0,0,0,0,
34.50066, 10:09:11.729,0,0,0,0,0,0,0,0,0,
34.55174, 10:09:11.779,0,0,0,0,0,0,0,0,0,
34.59507, 10:09:11.823,0,0,0,0,0,0,0,0,0,
34.64003, 10:09:11.868,0,0,0,0,0,0,0,0,0,
34.6809, 10:09:11.909,0,0,0,0,0,0,0,0,0,
34.72337, 10:09:11.950,0,0,0,0,0,0,0,0,0,
34.76985, 10:09:11.998,0,0,0,0,0,0,0,0,0,
34.81034, 10:09:12.038,0,0,0,0,0,0,0,0,0,
34.85302, 10:09:12.080,0,0,0,0,0,0,0,0,0,
34.90106, 10:09:12.128,0,0,0,0,0,0,0,0,0,
34.95967, 10:09:12.187,0,0,0,0,0,0,0,0,0,
34.99576, 10:09:12.223,0,0,0,0,0,0,0,0,0,
35.03255, 10:09:12.260,0,0,0,0,0,0,0,0,0,
35.08001, 10:09:12.308,0,0,0,0,0,0,0,0,0,
35.12611, 10:09:12.353,0,0,0,0,0,0,0,0,0,
35.1688, 10:09:12.395,0,0,0,0,0,0,0,0,0,
35.21724, 10:09:12.443,0,0,0,0,0,0,0,0,0,
35.25845, 10:09:12.485,0,0,0,0,0,0,0,0,0,
35.30262, 10:09:12.531,0,0,0,0,0,0,0,0,0,
35.34268, 10:09:12.569,0,0,0,0,0,0,0,0,0,
35.38715, 10:09:12.614,0,0,0,0,0,0,0,0,0,
35.43856, 10:09:12.665,0,0,0,0,0,0,0,0,0,
35.48277, 10:09:12.713,0,0,0,0,0,0,0,0,0,
35.52187, 10:09:12.748,0,0,0,0,0,0,0,0,0,
35.56507, 10:09:12.792,0,0,0,0,0,0,0,0,0,
35.61313, 10:09:12.839,0,0,0,0,0,0,0,0,0,
35.65922, 10:09:12.887,0,0,0,0,0,0,0,0,0,
35.70351, 10:09:12.932,0,0,0,0,0,0,0,0,0,
35.74693, 10:09:12.974,0,0,0,0,0,0,0,0,0,
35.79367, 10:09:13.020,0,0,0,0,0,0,0,0,0,
35.83775, 10:09:13.064,0,0,0,0,0,0,0,0,0,
35.87861, 10:09:13.105,0,0,0,0,0,0,0,0,0,
35.92103, 10:09:13.150,0,0,0,0,0,0,0,0,0,
35.96845, 10:09:13.196,0,0,0,0,0,0,0,0,0,
36.01311, 10:09:13.240,0,0,0,0,0,0,0,0,0,
36.05377, 10:09:13.281,0,0,0,0,0,0,0,0,0,
36.10361, 10:09:13.331,0,0,0,0,0,0,0,0,0,
36.14766, 10:09:13.375,0,0,0,0,0,0,0,0,0,
36.19045, 10:09:13.418,0,0,0,0,0,0,0,0,0,
36.23294, 10:09:13.460,0,0,0,0,0,0,0,0,0,
36.28328, 10:09:13.511,0,0,0,0,0,0,0,0,0,
36.32646, 10:09:13.553,0,0,0,0,0,0,0,0,0,
36.36818, 10:09:13.597,0,0,0,0,0,0,0,0,0,
36.41179, 10:09:13.638,0,0,0,0,0,0,0,0,0,
36.45557, 10:09:13.682,0,0,0,0,0,0,0,0,0,
36.50257, 10:09:13.731,0,0,0,0,0,0,0,0,0,
36.54702, 10:09:13.774,0,0,0,0,0,0,0,0,0,
36.58841, 10:09:13.816,0,0,0,0,0,0,0,0,0,
36.63046, 10:09:13.857,0,0,0,0,0,0,0,0,0,
36.68682, 10:09:13.918,0,0,0,0,0,0,0,0,0,
36.72701, 10:09:13.953,0,0,0,0,0,0,0,0,0,
36.76775, 10:09:13.994,0,0,0,0,0,0,0,0,0,
36.81084, 10:09:14.037,0,0,0,0,0,0,0,0,0,
36.86062, 10:09:14.090,0,0,0,0,0,0,0,0,0,
36.90527, 10:09:14.134,0,0,0,0,0,0,0,0,0,
36.95216, 10:09:14.180,0,0,0,0,0,0,0,0,0,
36.99089, 10:09:14.217,0,0,0,0,0,0,0,0,0,
37.04154, 10:09:14.269,0,0,0,0,0,0,0,0,0,
37.0798, 10:09:14.305,0,0,0,0,0,0,0,0,0,
37.1212, 10:09:14.349,0,0,0,0,0,0,0,0,0,
37.16398, 10:09:14.392,0,0,0,0,0,0,0,0,0,
37.21598, 10:09:14.443,0,0,0,0,0,0,0,0,0,
37.25756, 10:09:14.485,0,0,0,0,0,0,0,0,0,
37.30087, 10:09:14.530,0,0,0,0,0,0,0,0,0,
37.34324, 10:09:14.570,0,0,0,0,0,0,0,0,0,
37.39011, 10:09:14.617,0,0,0,0,0,0,0,0,0,
37.43738, 10:09:14.665,0,0,0,0,0,0,0,0,0,
37.48029, 10:09:14.710,0,0,0,0,0,0,0,0,0,
37.51968, 10:09:14.747,0,0,0,0,0,0,0,0,0,
37.56831, 10:09:14.796,0,0,0,0,0,0,0,0,0,
37.61136, 10:09:14.838,0,0,0,0,0,0,0,0,0,
37.65746, 10:09:14.884,0,0,0,0,0,0,0,0,0,
37.69981, 10:09:14.927,0,0,0,0,0,0,0,0,0,
37.74489, 10:09:14.972,0,0,0,0,0,0,0,0,0,
37.79411, 10:09:15.020,0,0,0,0,0,0,0,0,0,
37.83206, 10:09:15.059,0,0,0,0,0,0,0,0,0,
37.87787, 10:09:15.106,0,0,0,0,0,0,0,0,0,
37.92456, 10:09:15.153,0,0,0,0,0,0,0,0,0,
37.96922, 10:09:15.198,0,0,0,0,0,0,0,0,0,
38.01579, 10:09:15.243,0,0,0,0,0,0,0,0,0,
38.06234, 10:09:15.293,0,0,0,0,0,0,0,0,0,
38.11607, 10:09:15.342,0,0,0,0,0,0,0,0,0,
38.1606, 10:09:15.388,0,0,0,0,0,0,0,0,0,
38.19797, 10:09:15.427,0,0,0,0,0,0,0,0,0,
38.23969, 10:09:15.466,0,0,0,0,0,0,0,0,0,
38.27957, 10:09:15.506,0,0,0,0,0,0,0,0,0,
38.32639, 10:09:15.554,0,0,0,0,0,0,0,0,0,
38.36529, 10:09:15.593,0,0,0,0,0,0,0,0,0,
38.40858, 10:09:15.636,0,0,0,0,0,0,0,0,0,
38.45653, 10:09:15.683,0,0,0,0,0,0,0,0,0,
38.50688, 10:09:15.734,0,0,0,0,0,0,0,0,0,
38.5453, 10:09:15.771,0,0,0,0,0,0,0,0,0,
38.58608, 10:09:15.812,0,0,0,0,0,0,0,0,0,
38.6354, 10:09:15.862,0,0,0,0,0,0,0,0,0,
38.67936, 10:09:15.906,0,0,0,0,0,0,0,0,0,
38.72035, 10:09:15.949,0,0,0,0,0,0,0,0,0,
38.76843, 10:09:15.995,0,0,0,0,0,0,0,0,0,
38.81356, 10:09:16.040,0,0,0,0,0,0,0,0,0,
38.85717, 10:09:16.083,0,0,0,0,0,0,0,0,0,
38.8997, 10:09:16.126,0,0,0,0,0,0,0,0,0,
38.94297, 10:09:16.170,0,0,0,0,0,0,0,0,0,
38.99121, 10:09:16.218,0,0,0,0,0,0,0,0,0,
39.03502, 10:09:16.262,0,0,0,0,0,0,0,0,0,
39.0778, 10:09:16.305,0,0,0,0,0,0,0,0,0,
39.12027, 10:09:16.349,0,0,0,0,0,0,0,0,0,
39.17065, 10:09:16.398,0,0,0,0,0,0,0,0,0,
39.21902, 10:09:16.447,0,0,0,0,0,0,0,0,0,
39.26867, 10:09:16.497,0,0,0,0,0,0,0,0,0,
39.31088, 10:09:16.539,0,0,0,0,0,0,0,0,0,
39.35452, 10:09:16.581,0,0,0,0,0,0,0,0,0,
39.39238, 10:09:16.619,0,0,0,0,0,0,0,0,0,
39.43562, 10:09:16.663,0,0,0,0,0,0,0,0,0,
39.4796, 10:09:16.708,0,0,0,0,0,0,0,0,0,
39.52388, 10:09:16.752,0,0,0,0,0,0,0,0,0,
39.56816, 10:09:16.797,0,0,0,0,0,0,0,0,0,
39.6105, 10:09:16.838,0,0,0,0,0,0,0,0,0,
39.6552, 10:09:16.883,0,0,0,0,0,0,0,0,0,
39.70192, 10:09:16.931,0,0,0,0,0,0,0,0,0,
39.74549, 10:09:16.973,0,0,0,0,0,0,0,0,0,
39.79115, 10:09:17.020,0,0,0,0,0,0,0,0,0,
39.83146, 10:09:17.060,0,0,0,0,0,0,0,0,0,
39.88218, 10:09:17.111,0,0,0,0,0,0,0,0,0,
39.93109, 10:09:17.158,0,0,0,0,0,0,0,0,0,
39.96643, 10:09:17.193,0,0,0,0,0,0,0,0,0,
40.01727, 10:09:17.244,0,0,0,0,0,0,0,0,0,
40.0582, 10:09:17.286,0,0,0,0,0,0,0,0,0,
40.10445, 10:09:17.333,0,0,0,0,0,0,0,0,0,
40.14592, 10:09:17.374,0,0,0,0,0,0,0,0,0,
40.18655, 10:09:17.414,0,0,0,0,0,0,0,0,0,
40.23491, 10:09:17.463,0,0,0,0,0,0,0,0,0,
40.29055, 10:09:17.519,0,0,0,0,0,0,0,0,0,
40.33807, 10:09:17.565,0,0,0,0,0,0,0,0,0,
40.38162, 10:09:17.611,0,0,0,0,0,0,0,0,0,
40.45059, 10:09:17.679,0,0,0,0,0,0,0,0,0,
40.4925, 10:09:17.721,0,0,0,0,0,0,0,0,0,
40.54272, 10:09:17.770,0,0,0,0,0,0,0,0,0,
40.5838, 10:09:17.812,0,0,0,0,0,0,0,0,0,
40.62141, 10:09:17.848,0,0,0,0,0,0,0,0,0,
40.65627, 10:09:17.882,0,0,0,0,0,0,0,0,0,
40.70039, 10:09:17.928,0,0,0,0,0,0,0,0,0,
40.74887, 10:09:17.976,0,0,0,0,0,0,0,0,0,
40.78713, 10:09:18.014,0,0,0,0,0,0,0,0,0,
40.83083, 10:09:18.058,0,0,0,0,0,0,0,0,0,
40.88001, 10:09:18.108,0,0,0,0,0,0,0,0,0,
40.96205, 10:09:18.191,0,0,0,0,0,0,0,0,0,
41.00113, 10:09:18.230,0,0,0,0,0,0,0,0,0,
41.04026, 10:09:18.269,0,0,0,0,0,0,0,0,0,
41.07745, 10:09:18.303,0,0,0,0,0,0,0,0,0,
41.11143, 10:09:18.338,0,0,0,0,0,0,0,0,0,
41.1438, 10:09:18.370,0,0,0,0,0,0,0,0,0,
41.1867, 10:09:18.413,0,0,0,0,0,0,0,0,0,
41.23853, 10:09:18.466,0,0,0,0,0,0,0,0,0,
41.27842, 10:09:18.505,0,0,0,0,0,0,0,0,0,
41.32093, 10:09:18.550,0,0,0,0,0,0,0,0,0,
41.36361, 10:09:18.592,0,0,0,0,0,0,0,0,0,
41.41305, 10:09:18.639,0,0,0,0,0,0,0,0,0,
41.46541, 10:09:18.692,0,0,0,0,0,0,0,0,0,
41.50374, 10:09:18.731,0,0,0,0,0,0,0,0,0,
41.54721, 10:09:18.776,0,0,0,0,0,0,0,0,0,
41.62608, 10:09:18.855,0,0,0,0,0,0,0,0,0,
41.67801, 10:09:18.906,0,0,0,0,0,0,0,0,0,
41.71431, 10:09:18.942,0,0,0,0,0,0,0,0,0,
41.75262, 10:09:18.980,0,0,0,0,0,0,0,0,0,
41.7873, 10:09:19.014,0,0,0,0,0,0,0,0,0,
41.82064, 10:09:19.047,0,0,0,0,0,0,0,0,0,
41.86526, 10:09:19.091,0,0,0,0,0,0,0,0,0,
41.90404, 10:09:19.130,0,0,0,0,0,0,0,0,0,
41.9477, 10:09:19.174,0,0,0,0,0,0,0,0,0,
41.98847, 10:09:19.216,0,0,0,0,0,0,0,0,0,
42.03212, 10:09:19.259,0,0,0,0,0,0,0,0,0,
42.07834, 10:09:19.305,0,0,0,0,0,0,0,0,0,
42.12735, 10:09:19.356,0,0,0,0,0,0,0,0,0,
42.16762, 10:09:19.395,0,0,0,0,0,0,0,0,0,
42.20992, 10:09:19.439,0,0,0,0,0,0,0,0,0,
42.2604, 10:09:19.488,0,0,0,0,0,0,0,0,0,
42.30237, 10:09:19.530,0,0,0,0,0,0,0,0,0,
42.35037, 10:09:19.578,0,0,0,0,0,0,0,0,0,
42.38915, 10:09:19.617,0,0,0,0,0,0,0,0,0,
42.43578, 10:09:19.664,0,0,0,0,0,0,0,0,0,
42.48058, 10:09:19.710,0,0,0,0,0,0,0,0,0,
42.52137, 10:09:19.749,0,0,0,0,0,0,0,0,0,
42.5674, 10:09:19.793,0,0,0,0,0,0,0,0,0,
42.61511, 10:09:19.843,0,0,0,0,0,0,0,0,0,
42.65781, 10:09:19.885,0,0,0,0,0,0,0,0,0,
42.70122, 10:09:19.931,0,0,0,0,0,0,0,0,0,
42.74588, 10:09:19.974,0,0,0,0,0,0,0,0,0,
42.80442, 10:09:20.033,0,0,0,0,0,0,0,0,0,
42.84763, 10:09:20.075,0,0,0,0,0,0,0,0,0,
42.88133, 10:09:20.108,0,0,0,0,0,0,0,0,0,
42.91904, 10:09:20.145,0,0,0,0,0,0,0,0,0,
42.96735, 10:09:20.195,0,0,0,0,0,0,0,0,0,
43.02422, 10:09:20.252,0,0,0,0,0,0,0,0,0,
43.05997, 10:09:20.286,0,0,0,0,0,0,0,0,0,
43.10068, 10:09:20.328,0,0,0,0,0,0,0,0,0,
43.14532, 10:09:20.371,0,0,0,0,0,0,0,0,0,
43.19094, 10:09:20.418,0,0,0,0,0,0,0,0,0,
43.23538, 10:09:20.462,0,0,0,0,0,0,0,0,0,
43.27749, 10:09:20.505,0,0,0,0,0,0,0,0,0,
43.335, 10:09:20.565,0,0,0,0,0,0,0,0,0,
43.38305, 10:09:20.612,0,0,0,0,0,0,0,0,0,
43.42444, 10:09:20.651,0,0,0,0,0,0,0,0,0,
43.46608, 10:09:20.692,0,0,0,0,0,0,0,0,0,
43.50995, 10:09:20.736,0,0,0,0,0,0,0,0,0,
43.55041, 10:09:20.777,0,0,0,0,0,0,0,0,0,
43.58868, 10:09:20.816,0,0,0,0,0,0,0,0,0,
43.63292, 10:09:20.861,0,0,0,0,0,0,0,0,0,
43.68133, 10:09:20.909,0,0,0,0,0,0,0,0,0,
43.72417, 10:09:20.950,0,0,0,0,0,0,0,0,0,
43.76618, 10:09:20.994,0,0,0,0,0,0,0,0,0,
43.80814, 10:09:21.035,0,0,0,0,0,0,0,0,0,
43.85807, 10:09:21.085,0,0,0,0,0,0,0,0,0,
43.90472, 10:09:21.134,0,0,0,0,0,0,0,0,0,
43.95235, 10:09:21.180,0,0,0,0,0,0,0,0,0,
43.99367, 10:09:21.222,0,0,0,0,0,0,0,0,0,
44.03647, 10:09:21.263,0,0,0,0,0,0,0,0,0,
44.07893, 10:09:21.305,0,0,0,0,0,0,0,0,0,
44.12296, 10:09:21.350,0,0,0,0,0,0,0,0,0,
44.16599, 10:09:21.394,0,0,0,0,0,0,0,0,0,
44.21324, 10:09:21.440,0,0,0,0,0,0,0,0,0,
44.25823, 10:09:21.486,0,0,0,0,0,0,0,0,0,
44.29992, 10:09:21.527,0,0,0,0,0,0,0,0,0,
44.34432, 10:09:21.573,0,0,0,0,0,0,0,0,0,
44.39074, 10:09:21.619,0,0,0,0,0,0,0,0,0,
44.43306, 10:09:21.660,0,0,0,0,0,0,0,0,0,
44.47861, 10:09:21.707,0,0,0,0,0,0,0,0,0,
44.51938, 10:09:21.747,0,0,0,0,0,0,0,0,0,
44.57162, 10:09:21.800,0,0,0,0,0,0,0,0,0,
44.6137, 10:09:21.840,0,0,0,0,0,0,0,0,0,
44.65382, 10:09:21.881,0,0,0,0,0,0,0,0,0,
44.69983, 10:09:21.927,0,0,0,0,0,0,0,0,0,
44.74784, 10:09:21.977,0,0,0,0,0,0,0,0,0,
44.79628, 10:09:22.023,0,0,0,0,0,0,0,0,0,
44.83575, 10:09:22.063,0,0,0,0,0,0,0,0,0,
44.88446, 10:09:22.114,0,0,0,0,0,0,0,0,0,
44.93125, 10:09:22.158,0,0,0,0,0,0,0,0,0,
44.97286, 10:09:22.208,0,0,0,0,0,0,0,0,0,
45.02312, 10:09:22.251,0,0,0,0,0,0,0,0,0,
45.06084, 10:09:22.288,0,0,0,0,0,0,0,0,0,
45.11152, 10:09:22.340,0,0,0,0,0,0,0,0,0,
45.22712, 10:09:22.458,0,0,0,0,0,0,0,0,0,
45.29271, 10:09:22.521,0,0,0,0,0,0,0,0,0,
45.33192, 10:09:22.560,0,0,0,0,0,0,0,0,0,
45.3676, 10:09:22.595,0,0,0,0,0,0,0,0,0,
45.4025, 10:09:22.629,0,0,0,0,0,0,0,0,0,
45.43958, 10:09:22.665,0,0,0,0,0,0,0,0,0,
45.48164, 10:09:22.710,0,0,0,0,0,0,0,0,0,
45.52362, 10:09:22.751,0,0,0,0,0,0,0,0,0,
45.57043, 10:09:22.798,0,0,0,0,0,0,0,0,0,
45.61451, 10:09:22.841,0,0,0,0,0,0,0,0,0,
45.65751, 10:09:22.884,0,0,0,0,0,0,0,0,0,
45.70417, 10:09:22.933,0,0,0,0,0,0,0,0,0,
45.74716, 10:09:22.975,0,0,0,0,0,0,0,0,0,
45.79108, 10:09:23.018,0,0,0,0,0,0,0,0,0,
45.84035, 10:09:23.070,0,0,0,0,0,0,0,0,0,
Elapsed_Time, System_Time, Euler_Roll, Euler_Pitch, Euler_Yaw, Gyro_Roll, Gyro_Pitch, Gyro_Yaw, Accel_x, Accel_y, Accel_z
0.02, 10:09:33.736,0,0,0,0,0,0,0,0,0,
0.04, 10:09:33.859,0,0,0,0,0,0,0,0,0,
0.3733333, 10:09:34.492,0,0,0,0,0,0,0,0,0,
0.4757452, 10:09:34.586,0,0,0,0,0,0,0,0,0,
0.5476182, 10:09:34.654,0,0,0,0,0,0,0,0,0,
0.5957748, 10:09:34.700,0,0,0,0,0,0,0,0,0,
0.6653187, 10:09:34.772,0,0,0,0,0,0,0,0,0,
0.7139869, 10:09:34.818,0,0,0,0,0,0,0,0,0,
0.7553886, 10:09:34.860,0,0,0,0,0,0,0,0,0,
0.8070825, 10:09:34.912,0,0,0,0,0,0,0,0,0,
0.8481122, 10:09:34.952,0,0,0,0,0,0,0,0,0,
0.8963851, 10:09:35.003,0,0,0,0,0,0,0,0,0,
0.9422715, 10:09:35.048,0,0,0,0,0,0,0,0,0,
0.9835086, 10:09:35.087,0,0,0,0,0,0,0,0,0,
1.021116, 10:09:35.125,0,0,0,0,0,0,0,0,0,
1.057678, 10:09:35.161,0,0,0,0,0,0,0,0,0,
1.093778, 10:09:35.198,0,0,0,0,0,0,0,0,0,
1.13905, 10:09:35.243,0,0,0,0,0,0,0,0,0,
1.172721, 10:09:35.277,0,0,0,0,0,0,0,0,0,
1.206754, 10:09:35.311,0,0,0,0,0,0,0,0,0,
1.241608, 10:09:35.345,0,0,0,0,0,0,0,0,0,
1.28131, 10:09:35.385,0,0,0,0,0,0,0,0,0,
1.32239, 10:09:35.426,0,0,0,0,0,0,0,0,0,
1.362875, 10:09:35.466,0,0,0,0,0,0,0,0,0,
1.395933, 10:09:35.499,0,0,0,0,0,0,0,0,0,
1.434102, 10:09:35.538,0,0,0,0,0,0,0,0,0,
1.521195, 10:09:35.627,0,0,0,0,0,0,0,0,0,
1.556868, 10:09:35.661,0,0,0,0,0,0,0,0,0,
1.597298, 10:09:35.774,0,0,0,0,0,0,0,0,0,
1.707795, 10:09:35.815,0,0,0,0,0,0,0,0,0,
1.788456, 10:09:35.895,0,0,0,0,0,0,0,0,0,
1.891659, 10:09:35.999,0,0,0,0,0,0,0,0,0,
1.933014, 10:09:36.037,0,0,0,0,0,0,0,0,0,
1.973983, 10:09:36.080,0,0,0,0,0,0,0,0,0,
2.013812, 10:09:36.119,0,0,0,0,0,0,0,0,0,
2.055787, 10:09:36.162,0,0,0,0,0,0,0,0,0,
2.100683, 10:09:36.206,0,0,0,0,0,0,0,0,0,
2.142803, 10:09:36.247,0,0,0,0,0,0,0,0,0,
2.179786, 10:09:36.283,0,0,0,0,0,0,0,0,0,
2.211868, 10:09:36.315,0,0,0,0,0,0,0,0,0,
2.250571, 10:09:36.354,0,0,0,0,0,0,0,0,0,
2.288639, 10:09:36.392,0,0,0,0,0,0,0,0,0,
2.323578, 10:09:36.428,0,0,0,0,0,0,0,0,0,
2.358793, 10:09:36.462,0,0,0,0,0,0,0,0,0,
2.39596, 10:09:36.500,0,0,0,0,0,0,0,0,0,
2.432292, 10:09:36.537,0,0,0,0,0,0,0,0,0,
2.470463, 10:09:36.575,0,0,0,0,0,0,0,0,0,
2.508417, 10:09:36.613,0,0,0,0,0,0,0,0,0,
2.540697, 10:09:36.646,0,0,0,0,0,0,0,0,0,
2.574828, 10:09:36.677,0,0,0,0,0,0,0,0,0,
2.617522, 10:09:36.722,0,0,0,0,0,0,0,0,0,
2.656346, 10:09:36.760,0,0,0,0,0,0,0,0,0,
2.689337, 10:09:36.794,0,0,0,0,0,0,0,0,0,
2.723365, 10:09:36.827,0,0,0,0,0,0,0,0,0,
2.757428, 10:09:36.860,0,0,0,0,0,0,0,0,0,
2.793105, 10:09:36.898,0,0,0,0,0,0,0,0,0,
2.833042, 10:09:36.937,0,0,0,0,0,0,0,0,0,
2.867221, 10:09:36.971,0,0,0,0,0,0,0,0,0,
2.899739, 10:09:37.004,0,0,0,0,0,0,0,0,0,
2.933859, 10:09:37.038,0,0,0,0,0,0,0,0,0,
2.971603, 10:09:37.075,0,0,0,0,0,0,0,0,0,
3.008487, 10:09:37.112,0,0,0,0,0,0,0,0,0,
3.043188, 10:09:37.147,0,0,0,0,0,0,0,0,0,
3.078429, 10:09:37.182,0,0,0,0,0,0,0,0,0,
3.115991, 10:09:37.220,0,0,0,0,0,0,0,0,0,
3.16691, 10:09:37.275,0,0,0,0,0,0,0,0,0,
3.216747, 10:09:37.329,0,0,0,0,0,0,0,0,0,
3.279021, 10:09:37.387,0,0,0,0,0,0,0,0,0,
3.328242, 10:09:37.436,0,0,0,0,0,0,0,0,0,
3.369612, 10:09:37.474,0,0,0,0,0,0,0,0,0,
3.409148, 10:09:37.514,0,0,0,0,0,0,0,0,0,
3.448829, 10:09:37.553,0,0,0,0,0,0,0,0,0,
3.489381, 10:09:37.593,0,0,0,0,0,0,0,0,0,
3.530342, 10:09:37.636,0,0,0,0,0,0,0,0,0,
3.571175, 10:09:37.675,0,0,0,0,0,0,0,0,0,
3.606619, 10:09:37.711,0,0,0,0,0,0,0,0,0,
3.647156, 10:09:37.754,0,0,0,0,0,0,0,0,0,
3.686828, 10:09:37.791,0,0,0,0,0,0,0,0,0,
3.72361, 10:09:37.828,0,0,0,0,0,0,0,0,0,
3.758972, 10:09:37.862,0,0,0,0,0,0,0,0,0,
3.796803, 10:09:37.902,0,0,0,0,0,0,0,0,0,
3.834583, 10:09:37.939,0,0,0,0,0,0,0,0,0,
3.870356, 10:09:37.974,0,0,0,0,0,0,0,0,0,
3.903527, 10:09:38.008,0,0,0,0,0,0,0,0,0,
3.941384, 10:09:38.046,0,0,0,0,0,0,0,0,0,
3.980393, 10:09:38.084,0,0,0,0,0,0,0,0,0,
4.018716, 10:09:38.123,0,0,0,0,0,0,0,0,0,
4.05512, 10:09:38.160,0,0,0,0,0,0,0,0,0,
4.090311, 10:09:38.196,0,0,0,0,0,0,0,0,0,
4.12702, 10:09:38.232,0,0,0,0,0,0,0,0,0,
4.168028, 10:09:38.273,0,0,0,0,0,0,0,0,0,
4.211128, 10:09:38.316,0,0,0,0,0,0,0,0,0,
4.247334, 10:09:38.352,0,0,0,0,0,0,0,0,0,
4.283931, 10:09:38.388,0,0,0,0,0,0,0,0,0,
4.325024, 10:09:38.430,0,0,0,0,0,0,0,0,0,
4.372228, 10:09:38.478,0,0,0,0,0,0,0,0,0,
4.417946, 10:09:38.524,0,0,0,0,0,0,0,0,0,
4.458984, 10:09:38.565,0,0,0,0,0,0,0,0,0,
4.501858, 10:09:38.609,0,0,0,0,0,0,0,0,0,
4.541576, 10:09:38.646,0,0,0,0,0,0,0,0,0,
4.581078, 10:09:38.685,0,0,0,0,0,0,0,0,0,
4.623004, 10:09:38.728,0,0,0,0,0,0,0,0,0,
4.663003, 10:09:38.767,0,0,0,0,0,0,0,0,0,
4.701749, 10:09:38.806,0,0,0,0,0,0,0,0,0,
4.73577, 10:09:38.840,0,0,0,0,0,0,0,0,0,
4.770277, 10:09:38.875,0,0,0,0,0,0,0,0,0,
4.804992, 10:09:38.910,0,0,0,0,0,0,0,0,0,
4.844307, 10:09:38.949,0,0,0,0,0,0,0,0,0,
4.887541, 10:09:38.992,0,0,0,0,0,0,0,0,0,
4.92662, 10:09:39.031,0,0,0,0,0,0,0,0,0,
4.961079, 10:09:39.066,0,0,0,0,0,0,0,0,0,
5.000037, 10:09:39.104,0,0,0,0,0,0,0,0,0,
5.038894, 10:09:39.142,0,0,0,0,0,0,0,0,0,
5.075269, 10:09:39.179,0,0,0,0,0,0,0,0,0,
5.112075, 10:09:39.217,0,0,0,0,0,0,0,0,0,
5.163478, 10:09:39.270,0,0,0,0,0,0,0,0,0,
5.203907, 10:09:39.309,0,0,0,0,0,0,0,0,0,
5.24726, 10:09:39.354,0,0,0,0,0,0,0,0,0,
5.293471, 10:09:39.398,0,0,0,0,0,0,0,0,0,
5.33921, 10:09:39.444,0,0,0,0,0,0,0,0,0,
5.382376, 10:09:39.488,0,0,0,0,0,0,0,0,0,
5.422638, 10:09:39.529,0,0,0,0,0,0,0,0,0,
5.464251, 10:09:39.570,0,0,0,0,0,0,0,0,0,
5.524582, 10:09:39.634,0,0,0,0,0,0,0,0,0,
5.577662, 10:09:39.683,0,0,0,0,0,0,0,0,0,
5.622804, 10:09:39.728,0,0,0,0,0,0,0,0,0,
5.668679, 10:09:39.773,0,0,0,0,0,0,0,0,0,
5.707621, 10:09:39.811,0,0,0,0,0,0,0,0,0,
5.74062, 10:09:39.845,0,0,0,0,0,0,0,0,0,
5.778161, 10:09:39.881,0,0,0,0,0,0,0,0,0,
5.825727, 10:09:39.931,0,0,0,0,0,0,0,0,0,
5.864396, 10:09:39.970,0,0,0,0,0,0,0,0,0,
5.902948, 10:09:40.008,0,0,0,0,0,0,0,0,0,
5.940683, 10:09:40.046,0,0,0,0,0,0,0,0,0,
5.981894, 10:09:40.087,0,0,0,0,0,0,0,0,0,
6.024678, 10:09:40.128,0,0,0,0,0,0,0,0,0,
6.059187, 10:09:40.162,0,0,0,0,0,0,0,0,0,
6.093878, 10:09:40.197,0,0,0,0,0,0,0,0,0,
6.134914, 10:09:40.239,0,0,0,0,0,0,0,0,0,
6.179599, 10:09:40.284,0,0,0,0,0,0,0,0,0,
6.21463, 10:09:40.319,0,0,0,0,0,0,0,0,0,
6.248095, 10:09:40.353,0,0,0,0,0,0,0,0,0,
6.287589, 10:09:40.391,0,0,0,0,0,0,0,0,0,
6.324202, 10:09:40.428,0,0,0,0,0,0,0,0,0,
6.35851, 10:09:40.461,0,0,0,0,0,0,0,0,0,
6.425446, 10:09:40.532,0,0,0,0,0,0,0,0,0,
6.467843, 10:09:40.572,0,0,0,0,0,0,0,0,0,
6.510247, 10:09:40.615,0,0,0,0,0,0,0,0,0,
6.547721, 10:09:40.653,0,0,0,0,0,0,0,0,0,
6.585567, 10:09:40.689,0,0,0,0,0,0,0,0,0,
6.631722, 10:09:40.738,0,0,0,0,0,0,0,0,0,
6.676474, 10:09:40.781,0,0,0,0,0,0,0,0,0,
6.718066, 10:09:40.824,0,0,0,0,0,0,0,0,0,
6.76258, 10:09:40.868,0,0,0,0,0,0,0,0,0,
6.804603, 10:09:40.909,0,0,0,0,0,0,0,0,0,
6.847856, 10:09:40.954,0,0,0,0,0,0,0,0,0,
6.885034, 10:09:40.990,0,0,0,0,0,0,0,0,0,
6.920462, 10:09:41.025,0,0,0,0,0,0,0,0,0,
6.961196, 10:09:41.066,0,0,0,0,0,0,0,0,0,
6.999039, 10:09:41.102,0,0,0,0,0,0,0,0,0,
7.032194, 10:09:41.136,0,0,0,0,0,0,0,0,0,
7.069209, 10:09:41.173,0,0,0,0,0,0,0,0,0,
7.103449, 10:09:41.210,0,0,0,0,0,0,0,0,0,
7.143383, 10:09:41.248,0,0,0,0,0,0,0,0,0,
7.180974, 10:09:41.286,0,0,0,0,0,0,0,0,0,
7.216551, 10:09:41.320,0,0,0,0,0,0,0,0,0,
7.253107, 10:09:41.357,0,0,0,0,0,0,0,0,0,
7.294361, 10:09:41.399,0,0,0,0,0,0,0,0,0,
7.332817, 10:09:41.438,0,0,0,0,0,0,0,0,0,
7.369857, 10:09:41.475,0,0,0,0,0,0,0,0,0,
7.404689, 10:09:41.510,0,0,0,0,0,0,0,0,0,
7.443128, 10:09:41.548,0,0,0,0,0,0,0,0,0,
7.481678, 10:09:41.585,0,0,0,0,0,0,0,0,0,
7.518689, 10:09:41.621,0,0,0,0,0,0,0,0,0,
7.550198, 10:09:41.655,0,0,0,0,0,0,0,0,0,
7.584155, 10:09:41.688,0,0,0,0,0,0,0,0,0,
7.624547, 10:09:41.729,0,0,0,0,0,0,0,0,0,
7.661805, 10:09:41.766,0,0,0,0,0,0,0,0,0,
7.696679, 10:09:41.800,0,0,0,0,0,0,0,0,0,
7.733234, 10:09:41.838,0,0,0,0,0,0,0,0,0,
7.767399, 10:09:41.873,0,0,0,0,0,0,0,0,0,
7.807778, 10:09:41.916,0,0,0,0,0,0,0,0,0,
7.85558, 10:09:41.961,0,0,0,0,0,0,0,0,0,
7.89955, 10:09:42.005,0,0,0,0,0,0,0,0,0,
7.946778, 10:09:42.053,0,0,0,0,0,0,0,0,0,
7.991913, 10:09:42.097,0,0,0,0,0,0,0,0,0,
8.030708, 10:09:42.135,0,0,0,0,0,0,0,0,0,
8.064313, 10:09:42.170,0,0,0,0,0,0,0,0,0,
8.099483, 10:09:42.203,0,0,0,0,0,0,0,0,0,
8.137979, 10:09:42.243,0,0,0,0,0,0,0,0,0,
8.18086, 10:09:42.286,0,0,0,0,0,0,0,0,0,
8.217282, 10:09:42.320,0,0,0,0,0,0,0,0,0,
8.25006, 10:09:42.355,0,0,0,0,0,0,0,0,0,
8.290364, 10:09:42.395,0,0,0,0,0,0,0,0,0,
8.328038, 10:09:42.432,0,0,0,0,0,0,0,0,0,
8.36247, 10:09:42.467,0,0,0,0,0,0,0,0,0,
8.404371, 10:09:42.509,0,0,0,0,0,0,0,0,0,
8.443748, 10:09:42.549,0,0,0,0,0,0,0,0,0,
8.483387, 10:09:42.587,0,0,0,0,0,0,0,0,0,
8.519029, 10:09:42.622,0,0,0,0,0,0,0,0,0,
8.558996, 10:09:42.665,0,0,0,0,0,0,0,0,0,
8.60172, 10:09:42.708,0,0,0,0,0,0,0,0,0,
8.647916, 10:09:42.752,0,0,0,0,0,0,0,0,0,
8.685553, 10:09:42.789,0,0,0,0,0,0,0,0,0,
8.718453, 10:09:42.822,0,0,0,0,0,0,0,0,0,
8.759586, 10:09:42.864,0,0,0,0,0,0,0,0,0,
8.796547, 10:09:42.900,0,0,0,0,0,0,0,0,0,
8.836914, 10:09:42.943,0,0,0,0,0,0,0,0,0,
8.878314, 10:09:42.984,0,0,0,0,0,0,0,0,0,
8.923045, 10:09:43.030,0,0,0,0,0,0,0,0,0,
8.961906, 10:09:43.066,0,0,0,0,0,0,0,0,0,
8.999027, 10:09:43.102,0,0,0,0,0,0,0,0,0,
9.037723, 10:09:43.143,0,0,0,0,0,0,0,0,0,
9.094049, 10:09:43.202,0,0,0,0,0,0,0,0,0,
9.140706, 10:09:43.247,0,0,0,0,0,0,0,0,0,
9.17907, 10:09:43.282,0,0,0,0,0,0,0,0,0,
9.21056, 10:09:43.315,0,0,0,0,0,0,0,0,0,
9.249634, 10:09:43.354,0,0,0,0,0,0,0,0,0,
9.288921, 10:09:43.393,0,0,0,0,0,0,0,0,0,
9.326599, 10:09:43.430,0,0,0,0,0,0,0,0,0,
9.362942, 10:09:43.467,0,0,0,0,0,0,0,0,0,
9.401267, 10:09:43.505,0,0,0,0,0,0,0,0,0,
9.438659, 10:09:43.542,0,0,0,0,0,0,0,0,0,
9.472614, 10:09:43.577,0,0,0,0,0,0,0,0,0,
9.510011, 10:09:43.615,0,0,0,0,0,0,0,0,0,
9.544523, 10:09:43.649,0,0,0,0,0,0,0,0,0,
9.582757, 10:09:43.687,0,0,0,0,0,0,0,0,0,
9.625884, 10:09:43.731,0,0,0,0,0,0,0,0,0,
9.660694, 10:09:43.766,0,0,0,0,0,0,0,0,0,
9.695614, 10:09:43.799,0,0,0,0,0,0,0,0,0,
9.734629, 10:09:43.839,0,0,0,0,0,0,0,0,0,
9.772014, 10:09:43.876,0,0,0,0,0,0,0,0,0,
9.807387, 10:09:43.912,0,0,0,0,0,0,0,0,0,
9.842206, 10:09:43.948,0,0,0,0,0,0,0,0,0,
9.880441, 10:09:43.986,0,0,0,0,0,0,0,0,0,
9.922415, 10:09:44.028,0,0,0,0,0,0,0,0,0,
9.961678, 10:09:44.067,0,0,0,0,0,0,0,0,0,
9.997765, 10:09:44.102,0,0,0,0,0,0,0,0,0,
10.03963, 10:09:44.144,0,0,0,0,0,0,0,0,0,
10.07891, 10:09:44.182,0,0,0,0,0,0,0,0,0,
10.11608, 10:09:44.221,0,0,0,0,0,0,0,0,0,
10.1495, 10:09:44.254,0,0,0,0,0,0,0,0,0,
10.18925, 10:09:44.293,0,0,0,0,0,0,0,0,0,
10.23024, 10:09:44.336,0,0,0,0,0,0,0,0,0,
10.28456, 10:09:44.390,0,0,0,0,0,0,0,0,0,
10.32496, 10:09:44.430,0,0,0,0,0,0,0,0,0,
10.36481, 10:09:44.470,0,0,0,0,0,0,0,0,0,
10.40267, 10:09:44.507,0,0,0,0,0,0,0,0,0,
10.44259, 10:09:44.547,0,0,0,0,0,0,0,0,0,
10.4804, 10:09:44.584,0,0,0,0,0,0,0,0,0,
10.51554, 10:09:44.618,0,0,0,0,0,0,0,0,0,
10.55008, 10:09:44.654,0,0,0,0,0,0,0,0,0,
10.58773, 10:09:44.691,0,0,0,0,0,0,0,0,0,
10.63379, 10:09:44.739,0,0,0,0,0,0,0,0,0,
10.67175, 10:09:44.777,0,0,0,0,0,0,0,0,0,
10.70603, 10:09:44.811,0,0,0,0,0,0,0,0,0,
10.74243, 10:09:44.847,0,0,0,0,0,0,0,0,0,
10.7835, 10:09:44.887,0,0,0,0,0,0,0,0,0,
10.82096, 10:09:44.926,0,0,0,0,0,0,0,0,0,
10.85886, 10:09:44.963,0,0,0,0,0,0,0,0,0,
10.89428, 10:09:44.999,0,0,0,0,0,0,0,0,0,
10.93536, 10:09:45.040,0,0,0,0,0,0,0,0,0,
10.97661, 10:09:45.080,0,0,0,0,0,0,0,0,0,
11.0112, 10:09:45.116,0,0,0,0,0,0,0,0,0,
11.04685, 10:09:45.151,0,0,0,0,0,0,0,0,0,
11.08789, 10:09:45.193,0,0,0,0,0,0,0,0,0,
11.12496, 10:09:45.230,0,0,0,0,0,0,0,0,0,
11.15977, 10:09:45.264,0,0,0,0,0,0,0,0,0,
11.19657, 10:09:45.300,0,0,0,0,0,0,0,0,0,
11.23097, 10:09:45.335,0,0,0,0,0,0,0,0,0,
11.26843, 10:09:45.373,0,0,0,0,0,0,0,0,0,
11.30964, 10:09:45.414,0,0,0,0,0,0,0,0,0,
11.34922, 10:09:45.455,0,0,0,0,0,0,0,0,0,
11.38975, 10:09:45.496,0,0,0,0,0,0,0,0,0,
11.44247, 10:09:45.548,0,0,0,0,0,0,0,0,0,
11.48672, 10:09:45.592,0,0,0,0,0,0,0,0,0,
11.52388, 10:09:45.630,0,0,0,0,0,0,0,0,0,
11.56101, 10:09:45.666,0,0,0,0,0,0,0,0,0,
11.60078, 10:09:45.706,0,0,0,0,0,0,0,0,0,
11.64306, 10:09:45.747,0,0,0,0,0,0,0,0,0,
11.67808, 10:09:45.781,0,0,0,0,0,0,0,0,0,
11.71027, 10:09:45.816,0,0,0,0,0,0,0,0,0,
11.74852, 10:09:45.854,0,0,0,0,0,0,0,0,0,
11.79068, 10:09:45.896,0,0,0,0,0,0,0,0,0,
11.83269, 10:09:45.936,0,0,0,0,0,0,0,0,0,
11.87011, 10:09:45.974,0,0,0,0,0,0,0,0,0,
11.9038, 10:09:46.008,0,0,0,0,0,0,0,0,0,
11.94215, 10:09:46.047,0,0,0,0,0,0,0,0,0,
11.98481, 10:09:46.089,0,0,0,0,0,0,0,0,0,
12.02103, 10:09:46.125,0,0,0,0,0,0,0,0,0,
12.05573, 10:09:46.159,0,0,0,0,0,0,0,0,0,
12.09118, 10:09:46.196,0,0,0,0,0,0,0,0,0,
12.12981, 10:09:46.233,0,0,0,0,0,0,0,0,0,
12.16355, 10:09:46.268,0,0,0,0,0,0,0,0,0,
12.19989, 10:09:46.303,0,0,0,0,0,0,0,0,0,
12.23162, 10:09:46.336,0,0,0,0,0,0,0,0,0,
12.27114, 10:09:46.375,0,0,0,0,0,0,0,0,0,
12.30879, 10:09:46.414,0,0,0,0,0,0,0,0,0,
12.34269, 10:09:46.448,0,0,0,0,0,0,0,0,0,
12.37799, 10:09:46.482,0,0,0,0,0,0,0,0,0,
12.41525, 10:09:46.520,0,0,0,0,0,0,0,0,0,
12.45448, 10:09:46.558,0,0,0,0,0,0,0,0,0,
12.49727, 10:09:46.602,0,0,0,0,0,0,0,0,0,
12.54007, 10:09:46.646,0,0,0,0,0,0,0,0,0,
12.60246, 10:09:46.708,0,0,0,0,0,0,0,0,0,
12.64981, 10:09:46.754,0,0,0,0,0,0,0,0,0,
12.70703, 10:09:46.814,0,0,0,0,0,0,0,0,0,
12.74576, 10:09:46.850,0,0,0,0,0,0,0,0,0,
12.78004, 10:09:46.885,0,0,0,0,0,0,0,0,0,
12.83789, 10:09:46.942,0,0,0,0,0,0,0,0,0,
12.88499, 10:09:46.990,0,0,0,0,0,0,0,0,0,
12.91988, 10:09:47.023,0,0,0,0,0,0,0,0,0,
12.95875, 10:09:47.064,0,0,0,0,0,0,0,0,0,
13.00463, 10:09:47.111,0,0,0,0,0,0,0,0,0,
13.05, 10:09:47.156,0,0,0,0,0,0,0,0,0,
13.09027, 10:09:47.195,0,0,0,0,0,0,0,0,0,
13.13474, 10:09:47.240,0,0,0,0,0,0,0,0,0,
13.17976, 10:09:47.287,0,0,0,0,0,0,0,0,0,
13.22503, 10:09:47.330,0,0,0,0,0,0,0,0,0,
13.26566, 10:09:47.370,0,0,0,0,0,0,0,0,0,
13.3163, 10:09:47.420,0,0,0,0,0,0,0,0,0,
13.36175, 10:09:47.468,0,0,0,0,0,0,0,0,0,
13.41478, 10:09:47.521,0,0,0,0,0,0,0,0,0,
13.45925, 10:09:47.565,0,0,0,0,0,0,0,0,0,
13.49843, 10:09:47.604,0,0,0,0,0,0,0,0,0,
13.54726, 10:09:47.653,0,0,0,0,0,0,0,0,0,
13.6016, 10:09:47.708,0,0,0,0,0,0,0,0,0,
13.64845, 10:09:47.754,0,0,0,0,0,0,0,0,0,
13.72132, 10:09:47.830,0,0,0,0,0,0,0,0,0,
13.77173, 10:09:47.876,0,0,0,0,0,0,0,0,0,
13.81125, 10:09:47.915,0,0,0,0,0,0,0,0,0,
13.8498, 10:09:47.955,0,0,0,0,0,0,0,0,0,
13.89401, 10:09:47.999,0,0,0,0,0,0,0,0,0,
13.93525, 10:09:48.041,0,0,0,0,0,0,0,0,0,
13.97833, 10:09:48.083,0,0,0,0,0,0,0,0,0,
14.0222, 10:09:48.129,0,0,0,0,0,0,0,0,0,
14.06996, 10:09:48.174,0,0,0,0,0,0,0,0,0,
14.10365, 10:09:48.209,0,0,0,0,0,0,0,0,0,
14.16492, 10:09:48.270,0,0,0,0,0,0,0,0,0,
14.20978, 10:09:48.315,0,0,0,0,0,0,0,0,0,
14.25137, 10:09:48.356,0,0,0,0,0,0,0,0,0,
14.30673, 10:09:48.413,0,0,0,0,0,0,0,0,0,
14.37, 10:09:48.475,0,0,0,0,0,0,0,0,0,
14.42318, 10:09:48.531,0,0,0,0,0,0,0,0,0,
14.47135, 10:09:48.576,0,0,0,0,0,0,0,0,0,
14.50774, 10:09:48.612,0,0,0,0,0,0,0,0,0,
14.54337, 10:09:48.648,0,0,0,0,0,0,0,0,0,
14.5873, 10:09:48.692,0,0,0,0,0,0,0,0,0,
14.6305, 10:09:48.738,0,0,0,0,0,0,0,0,0,
14.66816, 10:09:48.774,0,0,0,0,0,0,0,0,0,
14.70276, 10:09:48.807,0,0,0,0,0,0,0,0,0,
14.74363, 10:09:48.848,0,0,0,0,0,0,0,0,0,
14.78856, 10:09:48.893,0,0,0,0,0,0,0,0,0,
14.83556, 10:09:48.941,0,0,0,0,0,0,0,0,0,
14.87859, 10:09:48.986,0,0,0,0,0,0,0,0,0,
14.92402, 10:09:49.030,0,0,0,0,0,0,0,0,0,
14.96749, 10:09:49.072,0,0,0,0,0,0,0,0,0,
15.00922, 10:09:49.114,0,0,0,0,0,0,0,0,0,
15.05387, 10:09:49.157,0,0,0,0,0,0,0,0,0,
15.1008, 10:09:49.207,0,0,0,0,0,0,0,0,0,
15.14247, 10:09:49.248,0,0,0,0,0,0,0,0,0,
15.18769, 10:09:49.293,0,0,0,0,0,0,0,0,0,
15.23001, 10:09:49.335,0,0,0,0,0,0,0,0,0,
15.28173, 10:09:49.389,0,0,0,0,0,0,0,0,0,
15.32321, 10:09:49.428,0,0,0,0,0,0,0,0,0,
15.37137, 10:09:49.476,0,0,0,0,0,0,0,0,0,
15.40915, 10:09:49.514,0,0,0,0,0,0,0,0,0,
15.45499, 10:09:49.560,0,0,0,0,0,0,0,0,0,
15.50891, 10:09:49.615,0,0,0,0,0,0,0,0,0,
15.54514, 10:09:49.650,0,0,0,0,0,0,0,0,0,
15.58691, 10:09:49.691,0,0,0,0,0,0,0,0,0,
15.63669, 10:09:49.741,0,0,0,0,0,0,0,0,0,
15.67934, 10:09:49.784,0,0,0,0,0,0,0,0,0,
15.72322, 10:09:49.830,0,0,0,0,0,0,0,0,0,
15.76538, 10:09:49.871,0,0,0,0,0,0,0,0,0,
15.81099, 10:09:49.916,0,0,0,0,0,0,0,0,0,
15.86172, 10:09:49.967,0,0,0,0,0,0,0,0,0,
15.8996, 10:09:50.002,0,0,0,0,0,0,0,0,0,
15.94511, 10:09:50.050,0,0,0,0,0,0,0,0,0,
15.99506, 10:09:50.100,0,0,0,0,0,0,0,0,0,
16.04743, 10:09:50.154,0,0,0,0,0,0,0,0,0,
16.09212, 10:09:50.197,0,0,0,0,0,0,0,0,0,
16.13286, 10:09:50.238,0,0,0,0,0,0,0,0,0,
16.21253, 10:09:50.318,0,0,0,0,0,0,0,0,0,
16.26521, 10:09:50.370,0,0,0,0,0,0,0,0,0,
16.3012, 10:09:50.406,0,0,0,0,0,0,0,0,0,
16.34423, 10:09:50.449,0,0,0,0,0,0,0,0,0,
16.38982, 10:09:50.495,0,0,0,0,0,0,0,0,0,
16.42825, 10:09:50.533,0,0,0,0,0,0,0,0,0,
16.46354, 10:09:50.568,0,0,0,0,0,0,0,0,0,
16.51099, 10:09:50.615,0,0,0,0,0,0,0,0,0,
16.54976, 10:09:50.655,0,0,0,0,0,0,0,0,0,
16.59311, 10:09:50.699,0,0,0,0,0,0,0,0,0,
16.6329, 10:09:50.737,0,0,0,0,0,0,0,0,0,
16.68731, 10:09:50.793,0,0,0,0,0,0,0,0,0,
16.7298, 10:09:50.834,0,0,0,0,0,0,0,0,0,
16.76506, 10:09:50.870,0,0,0,0,0,0,0,0,0,
16.81181, 10:09:50.917,0,0,0,0,0,0,0,0,0,
16.86692, 10:09:50.972,0,0,0,0,0,0,0,0,0,
16.90602, 10:09:51.011,0,0,0,0,0,0,0,0,0,
16.94137, 10:09:51.046,0,0,0,0,0,0,0,0,0,
16.98517, 10:09:51.090,0,0,0,0,0,0,0,0,0,
17.04576, 10:09:51.152,0,0,0,0,0,0,0,0,0,
17.08431, 10:09:51.189,0,0,0,0,0,0,0,0,0,
17.12046, 10:09:51.225,0,0,0,0,0,0,0,0,0,
17.16471, 10:09:51.272,0,0,0,0,0,0,0,0,0,
17.2302, 10:09:51.335,0,0,0,0,0,0,0,0,0,
17.27373, 10:09:51.379,0,0,0,0,0,0,0,0,0,
17.30775, 10:09:51.412,0,0,0,0,0,0,0,0,0,
17.3397, 10:09:51.444,0,0,0,0,0,0,0,0,0,
17.39155, 10:09:51.498,0,0,0,0,0,0,0,0,0,
17.43397, 10:09:51.540,0,0,0,0,0,0,0,0,0,
17.48281, 10:09:51.589,0,0,0,0,0,0,0,0,0,
17.52557, 10:09:51.631,0,0,0,0,0,0,0,0,0,
17.56963, 10:09:51.674,0,0,0,0,0,0,0,0,0,
17.6137, 10:09:51.719,0,0,0,0,0,0,0,0,0,
17.65585, 10:09:51.761,0,0,0,0,0,0,0,0,0,
17.69893, 10:09:51.805,0,0,0,0,0,0,0,0,0,
17.74781, 10:09:51.854,0,0,0,0,0,0,0,0,0,
17.78968, 10:09:51.895,0,0,0,0,0,0,0,0,0,
17.83009, 10:09:51.934,0,0,0,0,0,0,0,0,0,
17.87403, 10:09:51.979,0,0,0,0,0,0,0,0,0,
17.92789, 10:09:52.034,0,0,0,0,0,0,0,0,0,
17.97121, 10:09:52.076,0,0,0,0,0,0,0,0,0,
18.0091, 10:09:52.113,0,0,0,0,0,0,0,0,0,
18.05198, 10:09:52.157,0,0,0,0,0,0,0,0,0,
18.09971, 10:09:52.205,0,0,0,0,0,0,0,0,0,
18.14714, 10:09:52.254,0,0,0,0,0,0,0,0,0,
18.18845, 10:09:52.293,0,0,0,0,0,0,0,0,0,
18.23012, 10:09:52.335,0,0,0,0,0,0,0,0,0,
18.2783, 10:09:52.384,0,0,0,0,0,0,0,0,0,
18.32332, 10:09:52.431,0,0,0,0,0,0,0,0,0,
18.37071, 10:09:52.477,0,0,0,0,0,0,0,0,0,
18.41274, 10:09:52.519,0,0,0,0,0,0,0,0,0,
18.4549, 10:09:52.560,0,0,0,0,0,0,0,0,0,
18.50009, 10:09:52.605,0,0,0,0,0,0,0,0,0,
18.54266, 10:09:52.647,0,0,0,0,0,0,0,0,0,
18.58821, 10:09:52.693,0,0,0,0,0,0,0,0,0,
18.63494, 10:09:52.740,0,0,0,0,0,0,0,0,0,
18.67909, 10:09:52.784,0,0,0,0,0,0,0,0,0,
18.72205, 10:09:52.829,0,0,0,0,0,0,0,0,0,
18.763, 10:09:52.868,0,0,0,0,0,0,0,0,0,
18.81448, 10:09:52.920,0,0,0,0,0,0,0,0,0,
18.86003, 10:09:52.967,0,0,0,0,0,0,0,0,0,
18.89964, 10:09:53.006,0,0,0,0,0,0,0,0,0,
18.94372, 10:09:53.051,0,0,0,0,0,0,0,0,0,
18.99445, 10:09:53.102,0,0,0,0,0,0,0,0,0,
19.0455, 10:09:53.151,0,0,0,0,0,0,0,0,0,
19.08492, 10:09:53.190,0,0,0,0,0,0,0,0,0,
19.1202, 10:09:53.224,0,0,0,0,0,0,0,0,0,
19.15869, 10:09:53.263,0,0,0,0,0,0,0,0,0,
19.20002, 10:09:53.306,0,0,0,0,0,0,0,0,0,
19.24, 10:09:53.345,0,0,0,0,0,0,0,0,0,
19.31277, 10:09:53.419,0,0,0,0,0,0,0,0,0,
19.36634, 10:09:53.472,0,0,0,0,0,0,0,0,0,
19.40972, 10:09:53.516,0,0,0,0,0,0,0,0,0,
19.46129, 10:09:53.568,0,0,0,0,0,0,0,0,0,
19.51132, 10:09:53.617,0,0,0,0,0,0,0,0,0,
19.57417, 10:09:53.680,0,0,0,0,0,0,0,0,0,
19.61932, 10:09:53.726,0,0,0,0,0,0,0,0,0,
19.65772, 10:09:53.762,0,0,0,0,0,0,0,0,0,
19.70783, 10:09:53.813,0,0,0,0,0,0,0,0,0,
19.75164, 10:09:53.856,0,0,0,0,0,0,0,0,0,
19.78921, 10:09:53.894,0,0,0,0,0,0,0,0,0,
19.82343, 10:09:53.928,0,0,0,0,0,0,0,0,0,
19.86066, 10:09:53.966,0,0,0,0,0,0,0,0,0,
19.9002, 10:09:54.006,0,0,0,0,0,0,0,0,0,
19.93916, 10:09:54.042,0,0,0,0,0,0,0,0,0,
19.97241, 10:09:54.077,0,0,0,0,0,0,0,0,0,
20.00407, 10:09:54.108,0,0,0,0,0,0,0,0,0,
20.0387, 10:09:54.142,0,0,0,0,0,0,0,0,0,
20.07786, 10:09:54.182,0,0,0,0,0,0,0,0,0,
20.11769, 10:09:54.223,0,0,0,0,0,0,0,0,0,
20.15153, 10:09:54.256,0,0,0,0,0,0,0,0,0,
20.18531, 10:09:54.289,0,0,0,0,0,0,0,0,0,
20.22013, 10:09:54.326,0,0,0,0,0,0,0,0,0,
20.25669, 10:09:54.361,0,0,0,0,0,0,0,0,0,
20.29811, 10:09:54.403,0,0,0,0,0,0,0,0,0,
20.33217, 10:09:54.437,0,0,0,0,0,0,0,0,0,
20.36885, 10:09:54.474,0,0,0,0,0,0,0,0,0,
20.40372, 10:09:54.508,0,0,0,0,0,0,0,0,0,
20.44078, 10:09:54.547,0,0,0,0,0,0,0,0,0,
20.48056, 10:09:54.585,0,0,0,0,0,0,0,0,0,
20.51868, 10:09:54.622,0,0,0,0,0,0,0,0,0,
20.55112, 10:09:54.655,0,0,0,0,0,0,0,0,0,
20.58449, 10:09:54.689,0,0,0,0,0,0,0,0,0,
20.62535, 10:09:54.730,0,0,0,0,0,0,0,0,0,
20.66875, 10:09:54.777,0,0,0,0,0,0,0,0,0,
20.71349, 10:09:54.822,0,0,0,0,0,0,0,0,0,
20.75605, 10:09:54.861,0,0,0,0,0,0,0,0,0,
20.79508, 10:09:54.899,0,0,0,0,0,0,0,0,0,
20.83121, 10:09:54.934,0,0,0,0,0,0,0,0,0,
20.86464, 10:09:54.969,0,0,0,0,0,0,0,0,0,
20.89836, 10:09:55.001,0,0,0,0,0,0,0,0,0,
20.94231, 10:09:55.049,0,0,0,0,0,0,0,0,0,
21.00784, 10:09:55.115,0,0,0,0,0,0,0,0,0,
21.04814, 10:09:55.155,0,0,0,0,0,0,0,0,0,
21.0859, 10:09:55.190,0,0,0,0,0,0,0,0,0,
21.11923, 10:09:55.223,0,0,0,0,0,0,0,0,0,
21.15838, 10:09:55.264,0,0,0,0,0,0,0,0,0,
21.20861, 10:09:55.314,0,0,0,0,0,0,0,0,0,
21.24737, 10:09:55.353,0,0,0,0,0,0,0,0,0,
21.29002, 10:09:55.395,0,0,0,0,0,0,0,0,0,
21.33861, 10:09:55.443,0,0,0,0,0,0,0,0,0,
21.38298, 10:09:55.488,0,0,0,0,0,0,0,0,0,
21.42906, 10:09:55.534,0,0,0,0,0,0,0,0,0,
21.47106, 10:09:55.576,0,0,0,0,0,0,0,0,0,
21.51707, 10:09:55.623,0,0,0,0,0,0,0,0,0,
21.56114, 10:09:55.668,0,0,0,0,0,0,0,0,0,
21.60361, 10:09:55.709,0,0,0,0,0,0,0,0,0,
21.64838, 10:09:55.755,0,0,0,0,0,0,0,0,0,
21.69352, 10:09:55.799,0,0,0,0,0,0,0,0,0,
21.73684, 10:09:55.841,0,0,0,0,0,0,0,0,0,
21.78063, 10:09:55.887,0,0,0,0,0,0,0,0,0,
21.82943, 10:09:55.935,0,0,0,0,0,0,0,0,0,
21.88076, 10:09:55.987,0,0,0,0,0,0,0,0,0,
21.92522, 10:09:56.030,0,0,0,0,0,0,0,0,0,
21.96022, 10:09:56.066,0,0,0,0,0,0,0,0,0,
22.00304, 10:09:56.108,0,0,0,0,0,0,0,0,0,
22.04799, 10:09:56.153,0,0,0,0,0,0,0,0,0,
22.09425, 10:09:56.198,0,0,0,0,0,0,0,0,0,
22.13355, 10:09:56.237,0,0,0,0,0,0,0,0,0,
22.17711, 10:09:56.282,0,0,0,0,0,0,0,0,0,
22.23136, 10:09:56.336,0,0,0,0,0,0,0,0,0,
22.2688, 10:09:56.373,0,0,0,0,0,0,0,0,0,
22.3138, 10:09:56.418,0,0,0,0,0,0,0,0,0,
22.35558, 10:09:56.461,0,0,0,0,0,0,0,0,0,
22.4031, 10:09:56.510,0,0,0,0,0,0,0,0,0,
22.45009, 10:09:56.554,0,0,0,0,0,0,0,0,0,
22.49043, 10:09:56.595,0,0,0,0,0,0,0,0,0,
22.536, 10:09:56.640,0,0,0,0,0,0,0,0,0,
22.58179, 10:09:56.687,0,0,0,0,0,0,0,0,0,
22.6264, 10:09:56.732,0,0,0,0,0,0,0,0,0,
22.6684, 10:09:56.772,0,0,0,0,0,0,0,0,0,
22.71078, 10:09:56.816,0,0,0,0,0,0,0,0,0,
22.76158, 10:09:56.867,0,0,0,0,0,0,0,0,0,
22.80344, 10:09:56.908,0,0,0,0,0,0,0,0,0,
22.8446, 10:09:56.949,0,0,0,0,0,0,0,0,0,
22.88828, 10:09:56.993,0,0,0,0,0,0,0,0,0,
22.93669, 10:09:57.041,0,0,0,0,0,0,0,0,0,
22.98564, 10:09:57.093,0,0,0,0,0,0,0,0,0,
23.03264, 10:09:57.138,0,0,0,0,0,0,0,0,0,
23.07075, 10:09:57.176,0,0,0,0,0,0,0,0,0,
23.11593, 10:09:57.221,0,0,0,0,0,0,0,0,0,
23.15891, 10:09:57.263,0,0,0,0,0,0,0,0,0,
23.20275, 10:09:57.309,0,0,0,0,0,0,0,0,0,
23.2463, 10:09:57.351,0,0,0,0,0,0,0,0,0,
23.29111, 10:09:57.397,0,0,0,0,0,0,0,0,0,
23.33708, 10:09:57.441,0,0,0,0,0,0,0,0,0,
23.37739, 10:09:57.482,0,0,0,0,0,0,0,0,0,
23.42339, 10:09:57.530,0,0,0,0,0,0,0,0,0,
23.47119, 10:09:57.576,0,0,0,0,0,0,0,0,0,
23.5131, 10:09:57.618,0,0,0,0,0,0,0,0,0,
23.55552, 10:09:57.661,0,0,0,0,0,0,0,0,0,
23.60012, 10:09:57.706,0,0,0,0,0,0,0,0,0,
23.6505, 10:09:57.755,0,0,0,0,0,0,0,0,0,
23.6925, 10:09:57.797,0,0,0,0,0,0,0,0,0,
23.73551, 10:09:57.841,0,0,0,0,0,0,0,0,0,
23.78117, 10:09:57.888,0,0,0,0,0,0,0,0,0,
23.8285, 10:09:57.934,0,0,0,0,0,0,0,0,0,
23.87001, 10:09:57.975,0,0,0,0,0,0,0,0,0,
23.91212, 10:09:58.017,0,0,0,0,0,0,0,0,0,
23.95478, 10:09:58.059,0,0,0,0,0,0,0,0,0,
24.00307, 10:09:58.110,0,0,0,0,0,0,0,0,0,
24.04788, 10:09:58.153,0,0,0,0,0,0,0,0,0,
24.09246, 10:09:58.197,0,0,0,0,0,0,0,0,0,
24.13957, 10:09:58.245,0,0,0,0,0,0,0,0,0,
24.18446, 10:09:58.292,0,0,0,0,0,0,0,0,0,
24.23086, 10:09:58.336,0,0,0,0,0,0,0,0,0,
24.26938, 10:09:58.374,0,0,0,0,0,0,0,0,0,
24.31499, 10:09:58.431,0,0,0,0,0,0,0,0,0,
24.37645, 10:09:58.485,0,0,0,0,0,0,0,0,0,
24.43548, 10:09:58.545,0,0,0,0,0,0,0,0,0,
24.50039, 10:09:58.611,0,0,0,0,0,0,0,0,0,
24.55409, 10:09:58.659,0,0,0,0,0,0,0,0,0,
24.59003, 10:09:58.695,0,0,0,0,0,0,0,0,0,
24.62442, 10:09:58.730,0,0,0,0,0,0,0,0,0,
24.65956, 10:09:58.763,0,0,0,0,0,0,0,0,0,
24.6939, 10:09:58.798,0,0,0,0,0,0,0,0,0,
24.73564, 10:09:58.839,0,0,0,0,0,0,0,0,0,
24.77966, 10:09:58.884,0,0,0,0,0,0,0,0,0,
24.821, 10:09:58.926,0,0,0,0,0,0,0,0,0,
24.86862, 10:09:58.973,0,0,0,0,0,0,0,0,0,
24.91363, 10:09:59.018,0,0,0,0,0,0,0,0,0,
24.95606, 10:09:59.060,0,0,0,0,0,0,0,0,0,
25.00345, 10:09:59.110,0,0,0,0,0,0,0,0,0,
25.0495, 10:09:59.154,0,0,0,0,0,0,0,0,0,
25.09242, 10:09:59.198,0,0,0,0,0,0,0,0,0,
25.13439, 10:09:59.242,0,0,0,0,0,0,0,0,0,
25.1816, 10:09:59.288,0,0,0,0,0,0,0,0,0,
25.23103, 10:09:59.334,0,0,0,0,0,0,0,0,0,
25.27331, 10:09:59.379,0,0,0,0,0,0,0,0,0,
25.3116, 10:09:59.417,0,0,0,0,0,0,0,0,0,
25.36013, 10:09:59.470,0,0,0,0,0,0,0,0,0,
25.41158, 10:09:59.517,0,0,0,0,0,0,0,0,0,
25.45928, 10:09:59.563,0,0,0,0,0,0,0,0,0,
25.49369, 10:09:59.598,0,0,0,0,0,0,0,0,0,
25.52742, 10:09:59.631,0,0,0,0,0,0,0,0,0,
25.56744, 10:09:59.671,0,0,0,0,0,0,0,0,0,
25.60665, 10:09:59.712,0,0,0,0,0,0,0,0,0,
25.64464, 10:09:59.749,0,0,0,0,0,0,0,0,0,
25.68053, 10:09:59.785,0,0,0,0,0,0,0,0,0,
25.71933, 10:09:59.824,0,0,0,0,0,0,0,0,0,
25.76004, 10:09:59.867,0,0,0,0,0,0,0,0,0,
25.79568, 10:09:59.901,0,0,0,0,0,0,0,0,0,
25.82938, 10:09:59.933,0,0,0,0,0,0,0,0,0,
25.86548, 10:09:59.969,0,0,0,0,0,0,0,0,0,
25.90649, 10:10:00.011,0,0,0,0,0,0,0,0,0,
25.94436, 10:10:00.049,0,0,0,0,0,0,0,0,0,
25.97963, 10:10:00.084,0,0,0,0,0,0,0,0,0,
26.01371, 10:10:00.119,0,0,0,0,0,0,0,0,0,
26.05173, 10:10:00.156,0,0,0,0,0,0,0,0,0,
26.09476, 10:10:00.199,0,0,0,0,0,0,0,0,0,
26.13761, 10:10:00.242,0,0,0,0,0,0,0,0,0,
26.17282, 10:10:00.278,0,0,0,0,0,0,0,0,0,
26.21002, 10:10:00.314,0,0,0,0,0,0,0,0,0,
26.24853, 10:10:00.354,0,0,0,0,0,0,0,0,0,
26.28769, 10:10:00.393,0,0,0,0,0,0,0,0,0,
26.32201, 10:10:00.430,0,0,0,0,0,0,0,0,0,
26.36243, 10:10:00.467,0,0,0,0,0,0,0,0,0,
26.39995, 10:10:00.503,0,0,0,0,0,0,0,0,0,
26.43572, 10:10:00.539,0,0,0,0,0,0,0,0,0,
26.47102, 10:10:00.576,0,0,0,0,0,0,0,0,0,
26.50995, 10:10:00.615,0,0,0,0,0,0,0,0,0,
26.55686, 10:10:00.664,0,0,0,0,0,0,0,0,0,
26.60487, 10:10:00.710,0,0,0,0,0,0,0,0,0,
26.64736, 10:10:00.751,0,0,0,0,0,0,0,0,0,
26.67941, 10:10:00.782,0,0,0,0,0,0,0,0,0,
26.71416, 10:10:00.818,0,0,0,0,0,0,0,0,0,
26.75226, 10:10:00.857,0,0,0,0,0,0,0,0,0,
26.78907, 10:10:00.893,0,0,0,0,0,0,0,0,0,
26.82491, 10:10:00.928,0,0,0,0,0,0,0,0,0,
26.86223, 10:10:00.968,0,0,0,0,0,0,0,0,0,
26.90251, 10:10:01.008,0,0,0,0,0,0,0,0,0,
26.94489, 10:10:01.050,0,0,0,0,0,0,0,0,0,
26.98755, 10:10:01.092,0,0,0,0,0,0,0,0,0,
27.02293, 10:10:01.128,0,0,0,0,0,0,0,0,0,
27.06476, 10:10:01.170,0,0,0,0,0,0,0,0,0,
27.1051, 10:10:01.209,0,0,0,0,0,0,0,0,0,
27.14225, 10:10:01.247,0,0,0,0,0,0,0,0,0,
27.1772, 10:10:01.280,0,0,0,0,0,0,0,0,0,
27.21021, 10:10:01.314,0,0,0,0,0,0,0,0,0,
27.24236, 10:10:01.347,0,0,0,0,0,0,0,0,0,
27.28195, 10:10:01.386,0,0,0,0,0,0,0,0,0,
27.32156, 10:10:01.426,0,0,0,0,0,0,0,0,0,
27.3557, 10:10:01.459,0,0,0,0,0,0,0,0,0,
27.38771, 10:10:01.492,0,0,0,0,0,0,0,0,0,
27.42131, 10:10:01.526,0,0,0,0,0,0,0,0,0,
27.4592, 10:10:01.564,0,0,0,0,0,0,0,0,0,
27.50564, 10:10:01.612,0,0,0,0,0,0,0,0,0,
27.54346, 10:10:01.648,0,0,0,0,0,0,0,0,0,
27.58112, 10:10:01.686,0,0,0,0,0,0,0,0,0,
27.62072, 10:10:01.727,0,0,0,0,0,0,0,0,0,
27.66545, 10:10:01.770,0,0,0,0,0,0,0,0,0,
27.70729, 10:10:01.817,0,0,0,0,0,0,0,0,0,
27.75166, 10:10:01.856,0,0,0,0,0,0,0,0,0,
27.79126, 10:10:01.895,0,0,0,0,0,0,0,0,0,
27.82965, 10:10:01.934,0,0,0,0,0,0,0,0,0,
27.86122, 10:10:01.966,0,0,0,0,0,0,0,0,0,
27.89677, 10:10:02.000,0,0,0,0,0,0,0,0,0,
27.93778, 10:10:02.041,0,0,0,0,0,0,0,0,0,
27.97367, 10:10:02.079,0,0,0,0,0,0,0,0,0,
28.0125, 10:10:02.119,0,0,0,0,0,0,0,0,0,
28.04822, 10:10:02.153,0,0,0,0,0,0,0,0,0,
28.08166, 10:10:02.187,0,0,0,0,0,0,0,0,0,
28.11567, 10:10:02.219,0,0,0,0,0,0,0,0,0,
28.1565, 10:10:02.260,0,0,0,0,0,0,0,0,0,
28.19578, 10:10:02.300,0,0,0,0,0,0,0,0,0,
28.2294, 10:10:02.334,0,0,0,0,0,0,0,0,0,
28.2638, 10:10:02.369,0,0,0,0,0,0,0,0,0,
28.29801, 10:10:02.401,0,0,0,0,0,0,0,0,0,
28.33479, 10:10:02.439,0,0,0,0,0,0,0,0,0,
28.37505, 10:10:02.480,0,0,0,0,0,0,0,0,0,
28.40875, 10:10:02.514,0,0,0,0,0,0,0,0,0,
28.44326, 10:10:02.548,0,0,0,0,0,0,0,0,0,
28.47952, 10:10:02.584,0,0,0,0,0,0,0,0,0,
28.51925, 10:10:02.624,0,0,0,0,0,0,0,0,0,
28.5572, 10:10:02.662,0,0,0,0,0,0,0,0,0,
28.59487, 10:10:02.699,0,0,0,0,0,0,0,0,0,
28.63096, 10:10:02.737,0,0,0,0,0,0,0,0,0,
28.66972, 10:10:02.775,0,0,0,0,0,0,0,0,0,
28.75142, 10:10:02.859,0,0,0,0,0,0,0,0,0,
28.78992, 10:10:02.895,0,0,0,0,0,0,0,0,0,
28.83509, 10:10:02.941,0,0,0,0,0,0,0,0,0,
28.88926, 10:10:02.995,0,0,0,0,0,0,0,0,0,
28.92873, 10:10:03.034,0,0,0,0,0,0,0,0,0,
28.96561, 10:10:03.070,0,0,0,0,0,0,0,0,0,
29.00401, 10:10:03.108,0,0,0,0,0,0,0,0,0,
29.04336, 10:10:03.148,0,0,0,0,0,0,0,0,0,
29.07825, 10:10:03.183,0,0,0,0,0,0,0,0,0,
29.11405, 10:10:03.219,0,0,0,0,0,0,0,0,0,
29.15414, 10:10:03.258,0,0,0,0,0,0,0,0,0,
29.19475, 10:10:03.298,0,0,0,0,0,0,0,0,0,
29.23335, 10:10:03.336,0,0,0,0,0,0,0,0,0,
29.2685, 10:10:03.372,0,0,0,0,0,0,0,0,0,
29.30136, 10:10:03.405,0,0,0,0,0,0,0,0,0,
29.33475, 10:10:03.438,0,0,0,0,0,0,0,0,0,
29.37157, 10:10:03.476,0,0,0,0,0,0,0,0,0,
29.4132, 10:10:03.519,0,0,0,0,0,0,0,0,0,
29.44736, 10:10:03.552,0,0,0,0,0,0,0,0,0,
29.48299, 10:10:03.589,0,0,0,0,0,0,0,0,0,
29.51801, 10:10:03.620,0,0,0,0,0,0,0,0,0,
29.55576, 10:10:03.659,0,0,0,0,0,0,0,0,0,
29.59065, 10:10:03.695,0,0,0,0,0,0,0,0,0,
29.62613, 10:10:03.730,0,0,0,0,0,0,0,0,0,
29.66305, 10:10:03.767,0,0,0,0,0,0,0,0,0,
29.70038, 10:10:03.805,0,0,0,0,0,0,0,0,0,
29.7376, 10:10:03.841,0,0,0,0,0,0,0,0,0,
29.77392, 10:10:03.878,0,0,0,0,0,0,0,0,0,
29.80726, 10:10:03.911,0,0,0,0,0,0,0,0,0,
29.8403, 10:10:03.945,0,0,0,0,0,0,0,0,0,
29.87452, 10:10:03.978,0,0,0,0,0,0,0,0,0,
29.92839, 10:10:04.034,0,0,0,0,0,0,0,0,0,
29.9657, 10:10:04.070,0,0,0,0,0,0,0,0,0,
30.00216, 10:10:04.108,0,0,0,0,0,0,0,0,0,
30.04575, 10:10:04.155,0,0,0,0,0,0,0,0,0,
30.09251, 10:10:04.197,0,0,0,0,0,0,0,0,0,
30.13727, 10:10:04.243,0,0,0,0,0,0,0,0,0,
30.17088, 10:10:04.275,0,0,0,0,0,0,0,0,0,
30.20378, 10:10:04.308,0,0,0,0,0,0,0,0,0,
30.24372, 10:10:04.348,0,0,0,0,0,0,0,0,0,
30.28303, 10:10:04.387,0,0,0,0,0,0,0,0,0,
30.31764, 10:10:04.422,0,0,0,0,0,0,0,0,0,
30.35303, 10:10:04.457,0,0,0,0,0,0,0,0,0,
30.38972, 10:10:04.494,0,0,0,0,0,0,0,0,0,
30.42822, 10:10:04.533,0,0,0,0,0,0,0,0,0,
30.46458, 10:10:04.569,0,0,0,0,0,0,0,0,0,
30.49824, 10:10:04.601,0,0,0,0,0,0,0,0,0,
30.52983, 10:10:04.634,0,0,0,0,0,0,0,0,0,
30.56587, 10:10:04.670,0,0,0,0,0,0,0,0,0,
30.60396, 10:10:04.708,0,0,0,0,0,0,0,0,0,
30.64401, 10:10:04.749,0,0,0,0,0,0,0,0,0,
30.67701, 10:10:04.781,0,0,0,0,0,0,0,0,0,
30.70952, 10:10:04.815,0,0,0,0,0,0,0,0,0,
30.74237, 10:10:04.846,0,0,0,0,0,0,0,0,0,
30.78255, 10:10:04.886,0,0,0,0,0,0,0,0,0,
30.82123, 10:10:04.926,0,0,0,0,0,0,0,0,0,
30.85391, 10:10:04.958,0,0,0,0,0,0,0,0,0,
30.88718, 10:10:04.991,0,0,0,0,0,0,0,0,0,
30.92177, 10:10:05.027,0,0,0,0,0,0,0,0,0,
30.9595, 10:10:05.063,0,0,0,0,0,0,0,0,0,
30.99872, 10:10:05.104,0,0,0,0,0,0,0,0,0,
31.0328, 10:10:05.137,0,0,0,0,0,0,0,0,0,
31.06544, 10:10:05.171,0,0,0,0,0,0,0,0,0,
31.10038, 10:10:05.206,0,0,0,0,0,0,0,0,0,
31.14234, 10:10:05.248,0,0,0,0,0,0,0,0,0,
31.18512, 10:10:05.290,0,0,0,0,0,0,0,0,0,
31.23773, 10:10:05.343,0,0,0,0,0,0,0,0,0,
31.27688, 10:10:05.381,0,0,0,0,0,0,0,0,0,
31.32063, 10:10:05.426,0,0,0,0,0,0,0,0,0,
31.35844, 10:10:05.461,0,0,0,0,0,0,0,0,0,
31.38979, 10:10:05.495,0,0,0,0,0,0,0,0,0,
31.42764, 10:10:05.532,0,0,0,0,0,0,0,0,0,
31.46763, 10:10:05.574,0,0,0,0,0,0,0,0,0,
31.50796, 10:10:05.612,0,0,0,0,0,0,0,0,0,
31.54349, 10:10:05.648,0,0,0,0,0,0,0,0,0,
31.5779, 10:10:05.681,0,0,0,0,0,0,0,0,0,
31.6144, 10:10:05.719,0,0,0,0,0,0,0,0,0,
31.65696, 10:10:05.762,0,0,0,0,0,0,0,0,0,
31.69069, 10:10:05.795,0,0,0,0,0,0,0,0,0,
31.72393, 10:10:05.829,0,0,0,0,0,0,0,0,0,
31.75799, 10:10:05.862,0,0,0,0,0,0,0,0,0,
31.80422, 10:10:05.911,0,0,0,0,0,0,0,0,0,
31.84575, 10:10:05.950,0,0,0,0,0,0,0,0,0,
31.88702, 10:10:05.992,0,0,0,0,0,0,0,0,0,
31.92565, 10:10:06.031,0,0,0,0,0,0,0,0,0,
31.96685, 10:10:06.072,0,0,0,0,0,0,0,0,0,
32.00901, 10:10:06.116,0,0,0,0,0,0,0,0,0,
32.05024, 10:10:06.154,0,0,0,0,0,0,0,0,0,
32.08739, 10:10:06.192,0,0,0,0,0,0,0,0,0,
32.12736, 10:10:06.231,0,0,0,0,0,0,0,0,0,
32.17004, 10:10:06.275,0,0,0,0,0,0,0,0,0,
32.20416, 10:10:06.309,0,0,0,0,0,0,0,0,0,
32.24068, 10:10:06.346,0,0,0,0,0,0,0,0,0,
32.28097, 10:10:06.386,0,0,0,0,0,0,0,0,0,
32.32422, 10:10:06.430,0,0,0,0,0,0,0,0,0,
32.36289, 10:10:06.469,0,0,0,0,0,0,0,0,0,
32.41058, 10:10:06.516,0,0,0,0,0,0,0,0,0,
32.45089, 10:10:06.555,0,0,0,0,0,0,0,0,0,
32.49039, 10:10:06.595,0,0,0,0,0,0,0,0,0,
32.52608, 10:10:06.630,0,0,0,0,0,0,0,0,0,
32.55937, 10:10:06.662,0,0,0,0,0,0,0,0,0,
