Elapsed_Time, System_Time, Euler_Roll, Euler_Pitch, Euler_Yaw, Gyro_Roll, Gyro_Pitch, Gyro_Yaw, Accel_x, Accel_y, Accel_z
0.02, 11:55:05.558,0,0,0,0,0,0,0,0,0,
0.04, 11:55:06.348,0,0,0,0,0,0,0,0,0,
0.3733333, 11:55:10.773,0,0,0,0,0,0,0,0,0,
0.6324472, 11:55:11.028,0,0,0,0,0,0,0,0,0,
0.6996138, 11:55:11.078,0,0,0,0,0,0,0,0,0,
0.748953, 11:55:11.128,0,0,0,0,0,0,0,0,0,
0.9409514, 11:55:11.328,0,0,0,0,0,0,0,0,0,
0.999453, 11:55:11.378,0,0,0,0,0,0,0,0,0,
1.091123, 11:55:11.473,0,0,0,0,0,0,0,0,0,
1.142078, 11:55:11.521,0,0,0,0,0,0,0,0,0,
1.186744, 11:55:11.565,0,0,0,0,0,0,0,0,0,
1.214424, 11:55:11.591,0,0,0,0,0,0,0,0,0,
1.243936, 11:55:11.622,0,0,0,0,0,0,0,0,0,
1.283336, 11:55:11.662,0,0,0,0,0,0,0,0,0,
1.323776, 11:55:11.702,0,0,0,0,0,0,0,0,0,
1.352755, 11:55:11.730,0,0,0,0,0,0,0,0,0,
1.389535, 11:55:11.767,0,0,0,0,0,0,0,0,0,
1.422402, 11:55:11.800,0,0,0,0,0,0,0,0,0,
1.473686, 11:55:11.852,0,0,0,0,0,0,0,0,0,
1.505112, 11:55:11.883,0,0,0,0,0,0,0,0,0,
1.53664, 11:55:11.914,0,0,0,0,0,0,0,0,0,
1.564382, 11:55:11.943,0,0,0,0,0,0,0,0,0,
1.602678, 11:55:11.981,0,0,0,0,0,0,0,0,0,
1.650178, 11:55:12.029,0,0,0,0,0,0,0,0,0,
1.701756, 11:55:12.082,0,0,0,0,0,0,0,0,0,
1.875285, 11:55:12.259,0,0,0,0,0,0,0,0,0,
1.924324, 11:55:12.304,0,0,0,0,0,0,0,0,0,
1.956036, 11:55:12.490,0,0,0,0,0,0,0,0,0,
2.141686, 11:55:12.528,0,0,0,0,0,0,0,0,0,
2.475019, 11:55:12.997,0,0,0,0,0,0,0,0,0,
2.793786, 11:55:13.316,0,0,0,0,0,0,0,0,0,
2.883776, 11:55:13.395,0,0,0,0,0,0,0,0,0,
2.920542, 11:55:13.428,0,0,0,0,0,0,0,0,0,
2.952451, 11:55:13.459,0,0,0,0,0,0,0,0,0,
2.992447, 11:55:13.500,0,0,0,0,0,0,0,0,0,
3.022652, 11:55:13.531,0,0,0,0,0,0,0,0,0,
3.054645, 11:55:13.561,0,0,0,0,0,0,0,0,0,
3.081803, 11:55:13.590,0,0,0,0,0,0,0,0,0,
3.11141, 11:55:13.619,0,0,0,0,0,0,0,0,0,
3.150537, 11:55:13.658,0,0,0,0,0,0,0,0,0,
3.18162, 11:55:13.689,0,0,0,0,0,0,0,0,0,
3.210239, 11:55:13.717,0,0,0,0,0,0,0,0,0,
3.256442, 11:55:13.764,0,0,0,0,0,0,0,0,0,
3.2877, 11:55:13.795,0,0,0,0,0,0,0,0,0,
3.328553, 11:55:13.836,0,0,0,0,0,0,0,0,0,
3.359457, 11:55:13.866,0,0,0,0,0,0,0,0,0,
3.393459, 11:55:13.901,0,0,0,0,0,0,0,0,0,
3.459724, 11:55:13.969,0,0,0,0,0,0,0,0,0,
3.503761, 11:55:14.013,0,0,0,0,0,0,0,0,0,
3.536956, 11:55:14.045,0,0,0,0,0,0,0,0,0,
3.566164, 11:55:14.073,0,0,0,0,0,0,0,0,0,
3.595865, 11:55:14.103,0,0,0,0,0,0,0,0,0,
3.624113, 11:55:14.132,0,0,0,0,0,0,0,0,0,
3.667478, 11:55:14.175,0,0,0,0,0,0,0,0,0,
3.700539, 11:55:14.208,0,0,0,0,0,0,0,0,0,
3.729782, 11:55:14.236,0,0,0,0,0,0,0,0,0,
3.760896, 11:55:14.270,0,0,0,0,0,0,0,0,0,
3.79829, 11:55:14.307,0,0,0,0,0,0,0,0,0,
3.854835, 11:55:14.364,0,0,0,0,0,0,0,0,0,
3.891622, 11:55:14.400,0,0,0,0,0,0,0,0,0,
3.92586, 11:55:14.434,0,0,0,0,0,0,0,0,0,
3.95895, 11:55:14.465,0,0,0,0,0,0,0,0,0,
3.999437, 11:55:14.512,0,0,0,0,0,0,0,0,0,
4.037038, 11:55:14.544,0,0,0,0,0,0,0,0,0,
4.067288, 11:55:14.575,0,0,0,0,0,0,0,0,0,
4.096327, 11:55:14.604,0,0,0,0,0,0,0,0,0,
4.126585, 11:55:14.634,0,0,0,0,0,0,0,0,0,
4.167542, 11:55:14.675,0,0,0,0,0,0,0,0,0,
4.199179, 11:55:14.707,0,0,0,0,0,0,0,0,0,
4.229329, 11:55:14.737,0,0,0,0,0,0,0,0,0,
4.258989, 11:55:14.765,0,0,0,0,0,0,0,0,0,
4.288586, 11:55:14.796,0,0,0,0,0,0,0,0,0,
4.331033, 11:55:14.840,0,0,0,0,0,0,0,0,0,
4.364446, 11:55:14.872,0,0,0,0,0,0,0,0,0,
4.599442, 11:55:15.117,0,0,0,0,0,0,0,0,0,
4.653358, 11:55:15.163,0,0,0,0,0,0,0,0,0,
4.723373, 11:55:15.234,0,0,0,0,0,0,0,0,0,
4.757137, 11:55:15.265,0,0,0,0,0,0,0,0,0,
4.798562, 11:55:15.306,0,0,0,0,0,0,0,0,0,
4.836285, 11:55:15.344,0,0,0,0,0,0,0,0,0,
4.87063, 11:55:15.379,0,0,0,0,0,0,0,0,0,
4.900613, 11:55:15.408,0,0,0,0,0,0,0,0,0,
4.934899, 11:55:15.443,0,0,0,0,0,0,0,0,0,
4.987044, 11:55:15.497,0,0,0,0,0,0,0,0,0,
5.027594, 11:55:15.536,0,0,0,0,0,0,0,0,0,
5.058452, 11:55:15.565,0,0,0,0,0,0,0,0,0,
5.090284, 11:55:15.598,0,0,0,0,0,0,0,0,0,
5.132246, 11:55:15.641,0,0,0,0,0,0,0,0,0,
5.196766, 11:55:15.705,0,0,0,0,0,0,0,0,0,
5.227367, 11:55:15.735,0,0,0,0,0,0,0,0,0,
5.257705, 11:55:15.764,0,0,0,0,0,0,0,0,0,
5.297722, 11:55:15.805,0,0,0,0,0,0,0,0,0,
5.331742, 11:55:15.839,0,0,0,0,0,0,0,0,0,
5.36134, 11:55:15.869,0,0,0,0,0,0,0,0,0,
5.391569, 11:55:15.897,0,0,0,0,0,0,0,0,0,
5.421045, 11:55:15.928,0,0,0,0,0,0,0,0,0,
5.468404, 11:55:15.976,0,0,0,0,0,0,0,0,0,
5.502748, 11:55:16.010,0,0,0,0,0,0,0,0,0,
5.53502, 11:55:16.041,0,0,0,0,0,0,0,0,0,
5.563318, 11:55:16.071,0,0,0,0,0,0,0,0,0,
5.592834, 11:55:16.100,0,0,0,0,0,0,0,0,0,
5.633045, 11:55:16.141,0,0,0,0,0,0,0,0,0,
5.664036, 11:55:16.173,0,0,0,0,0,0,0,0,0,
5.69279, 11:55:16.214,0,0,0,0,0,0,0,0,0,
5.736578, 11:55:16.244,0,0,0,0,0,0,0,0,0,
5.768219, 11:55:16.276,0,0,0,0,0,0,0,0,0,
5.809711, 11:55:16.317,0,0,0,0,0,0,0,0,0,
5.842191, 11:55:16.349,0,0,0,0,0,0,0,0,0,
5.870696, 11:55:16.377,0,0,0,0,0,0,0,0,0,
5.898837, 11:55:16.405,0,0,0,0,0,0,0,0,0,
5.927904, 11:55:16.436,0,0,0,0,0,0,0,0,0,
5.971783, 11:55:16.479,0,0,0,0,0,0,0,0,0,
6.005394, 11:55:16.512,0,0,0,0,0,0,0,0,0,
6.033911, 11:55:16.541,0,0,0,0,0,0,0,0,0,
6.067887, 11:55:16.576,0,0,0,0,0,0,0,0,0,
6.103578, 11:55:16.612,0,0,0,0,0,0,0,0,0,
6.158455, 11:55:16.667,0,0,0,0,0,0,0,0,0,
6.193381, 11:55:16.701,0,0,0,0,0,0,0,0,0,
6.226284, 11:55:16.734,0,0,0,0,0,0,0,0,0,
6.255992, 11:55:16.762,0,0,0,0,0,0,0,0,0,
6.296403, 11:55:16.804,0,0,0,0,0,0,0,0,0,
6.326731, 11:55:16.834,0,0,0,0,0,0,0,0,0,
6.355878, 11:55:16.863,0,0,0,0,0,0,0,0,0,
6.384642, 11:55:16.892,0,0,0,0,0,0,0,0,0,
6.415298, 11:55:16.923,0,0,0,0,0,0,0,0,0,
6.456538, 11:55:16.965,0,0,0,0,0,0,0,0,0,
6.491565, 11:55:17.000,0,0,0,0,0,0,0,0,0,
6.522676, 11:55:17.032,0,0,0,0,0,0,0,0,0,
6.55271, 11:55:17.059,0,0,0,0,0,0,0,0,0,
6.580985, 11:55:17.088,0,0,0,0,0,0,0,0,0,
6.623367, 11:55:17.131,0,0,0,0,0,0,0,0,0,
6.662888, 11:55:17.170,0,0,0,0,0,0,0,0,0,
6.691453, 11:55:17.198,0,0,0,0,0,0,0,0,0,
6.720181, 11:55:17.228,0,0,0,0,0,0,0,0,0,
6.75025, 11:55:17.257,0,0,0,0,0,0,0,0,0,
6.792063, 11:55:17.301,0,0,0,0,0,0,0,0,0,
6.823874, 11:55:17.332,0,0,0,0,0,0,0,0,0,
6.855528, 11:55:17.362,0,0,0,0,0,0,0,0,0,
6.884655, 11:55:17.393,0,0,0,0,0,0,0,0,0,
6.914636, 11:55:17.422,0,0,0,0,0,0,0,0,0,
6.958302, 11:55:17.465,0,0,0,0,0,0,0,0,0,
6.990258, 11:55:17.497,0,0,0,0,0,0,0,0,0,
7.019619, 11:55:17.526,0,0,0,0,0,0,0,0,0,
7.049002, 11:55:17.557,0,0,0,0,0,0,0,0,0,
7.08164, 11:55:17.590,0,0,0,0,0,0,0,0,0,
7.124337, 11:55:17.632,0,0,0,0,0,0,0,0,0,
7.1556, 11:55:17.662,0,0,0,0,0,0,0,0,0,
7.184148, 11:55:17.692,0,0,0,0,0,0,0,0,0,
7.215099, 11:55:17.722,0,0,0,0,0,0,0,0,0,
7.255761, 11:55:17.765,0,0,0,0,0,0,0,0,0,
7.315319, 11:55:17.825,0,0,0,0,0,0,0,0,0,
7.35132, 11:55:17.859,0,0,0,0,0,0,0,0,0,
7.383829, 11:55:17.891,0,0,0,0,0,0,0,0,0,
7.414029, 11:55:17.921,0,0,0,0,0,0,0,0,0,
7.455878, 11:55:17.963,0,0,0,0,0,0,0,0,0,
7.489389, 11:55:17.997,0,0,0,0,0,0,0,0,0,
7.518655, 11:55:18.026,0,0,0,0,0,0,0,0,0,
7.547599, 11:55:18.055,0,0,0,0,0,0,0,0,0,
7.578697, 11:55:18.085,0,0,0,0,0,0,0,0,0,
7.620093, 11:55:18.129,0,0,0,0,0,0,0,0,0,
7.651497, 11:55:18.158,0,0,0,0,0,0,0,0,0,
7.679932, 11:55:18.187,0,0,0,0,0,0,0,0,0,
7.710219, 11:55:18.217,0,0,0,0,0,0,0,0,0,
7.741355, 11:55:18.248,0,0,0,0,0,0,0,0,0,
7.781969, 11:55:18.290,0,0,0,0,0,0,0,0,0,
7.813653, 11:55:18.320,0,0,0,0,0,0,0,0,0,
7.847111, 11:55:18.355,0,0,0,0,0,0,0,0,0,
7.879147, 11:55:18.386,0,0,0,0,0,0,0,0,0,
7.909046, 11:55:18.417,0,0,0,0,0,0,0,0,0,
7.95521, 11:55:18.463,0,0,0,0,0,0,0,0,0,
7.993849, 11:55:18.502,0,0,0,0,0,0,0,0,0,
8.029971, 11:55:18.538,0,0,0,0,0,0,0,0,0,
8.068584, 11:55:18.576,0,0,0,0,0,0,0,0,0,
8.116633, 11:55:18.624,0,0,0,0,0,0,0,0,0,
8.158061, 11:55:18.665,0,0,0,0,0,0,0,0,0,
8.194549, 11:55:18.702,0,0,0,0,0,0,0,0,0,
8.232734, 11:55:18.740,0,0,0,0,0,0,0,0,0,
8.280518, 11:55:18.790,0,0,0,0,0,0,0,0,0,
8.321741, 11:55:18.829,0,0,0,0,0,0,0,0,0,
8.360538, 11:55:18.868,0,0,0,0,0,0,0,0,0,
8.407133, 11:55:18.916,0,0,0,0,0,0,0,0,0,
8.468349, 11:55:18.977,0,0,0,0,0,0,0,0,0,
8.511782, 11:55:19.019,0,0,0,0,0,0,0,0,0,
8.554981, 11:55:19.062,0,0,0,0,0,0,0,0,0,
8.594948, 11:55:19.103,0,0,0,0,0,0,0,0,0,
8.645213, 11:55:19.155,0,0,0,0,0,0,0,0,0,
8.686255, 11:55:19.194,0,0,0,0,0,0,0,0,0,
8.715924, 11:55:19.224,0,0,0,0,0,0,0,0,0,
8.745204, 11:55:19.253,0,0,0,0,0,0,0,0,0,
8.786456, 11:55:19.294,0,0,0,0,0,0,0,0,0,
8.821785, 11:55:19.329,0,0,0,0,0,0,0,0,0,
8.851165, 11:55:19.357,0,0,0,0,0,0,0,0,0,
8.879513, 11:55:19.386,0,0,0,0,0,0,0,0,0,
8.909045, 11:55:19.416,0,0,0,0,0,0,0,0,0,
8.952958, 11:55:19.461,0,0,0,0,0,0,0,0,0,
8.984649, 11:55:19.491,0,0,0,0,0,0,0,0,0,
9.013759, 11:55:19.521,0,0,0,0,0,0,0,0,0,
9.044634, 11:55:19.552,0,0,0,0,0,0,0,0,0,
9.073702, 11:55:19.580,0,0,0,0,0,0,0,0,0,
9.114878, 11:55:19.622,0,0,0,0,0,0,0,0,0,
9.152521, 11:55:19.660,0,0,0,0,0,0,0,0,0,
9.181466, 11:55:19.689,0,0,0,0,0,0,0,0,0,
9.210574, 11:55:19.717,0,0,0,0,0,0,0,0,0,
9.240774, 11:55:19.748,0,0,0,0,0,0,0,0,0,
9.285191, 11:55:19.793,0,0,0,0,0,0,0,0,0,
9.316764, 11:55:19.824,0,0,0,0,0,0,0,0,0,
9.345004, 11:55:19.853,0,0,0,0,0,0,0,0,0,
9.375094, 11:55:19.881,0,0,0,0,0,0,0,0,0,
9.403814, 11:55:19.911,0,0,0,0,0,0,0,0,0,
9.44503, 11:55:19.953,0,0,0,0,0,0,0,0,0,
9.479684, 11:55:19.986,0,0,0,0,0,0,0,0,0,
9.509586, 11:55:20.018,0,0,0,0,0,0,0,0,0,
9.544921, 11:55:20.053,0,0,0,0,0,0,0,0,0,
9.585104, 11:55:20.094,0,0,0,0,0,0,0,0,0,
9.636756, 11:55:20.145,0,0,0,0,0,0,0,0,0,
9.672792, 11:55:20.181,0,0,0,0,0,0,0,0,0,
9.705307, 11:55:20.214,0,0,0,0,0,0,0,0,0,
9.736612, 11:55:20.243,0,0,0,0,0,0,0,0,0,
9.785176, 11:55:20.294,0,0,0,0,0,0,0,0,0,
9.820049, 11:55:20.327,0,0,0,0,0,0,0,0,0,
9.859959, 11:55:20.367,0,0,0,0,0,0,0,0,0,
9.890057, 11:55:20.397,0,0,0,0,0,0,0,0,0,
9.936335, 11:55:20.445,0,0,0,0,0,0,0,0,0,
9.971888, 11:55:20.480,0,0,0,0,0,0,0,0,0,
10.15679, 11:55:20.673,0,0,0,0,0,0,0,0,0,
10.20965, 11:55:20.717,0,0,0,0,0,0,0,0,0,
10.2435, 11:55:20.751,0,0,0,0,0,0,0,0,0,
10.27525, 11:55:20.782,0,0,0,0,0,0,0,0,0,
10.30597, 11:55:20.813,0,0,0,0,0,0,0,0,0,
10.3363, 11:55:20.843,0,0,0,0,0,0,0,0,0,
10.37753, 11:55:20.885,0,0,0,0,0,0,0,0,0,
10.41119, 11:55:20.919,0,0,0,0,0,0,0,0,0,
10.44042, 11:55:20.948,0,0,0,0,0,0,0,0,0,
10.47036, 11:55:20.977,0,0,0,0,0,0,0,0,0,
10.50344, 11:55:21.011,0,0,0,0,0,0,0,0,0,
10.54503, 11:55:21.053,0,0,0,0,0,0,0,0,0,
10.57549, 11:55:21.082,0,0,0,0,0,0,0,0,0,
10.60344, 11:55:21.111,0,0,0,0,0,0,0,0,0,
10.63357, 11:55:21.141,0,0,0,0,0,0,0,0,0,
10.66173, 11:55:21.171,0,0,0,0,0,0,0,0,0,
10.75261, 11:55:21.263,0,0,0,0,0,0,0,0,0,
10.79185, 11:55:21.300,0,0,0,0,0,0,0,0,0,
10.82459, 11:55:21.332,0,0,0,0,0,0,0,0,0,
10.86825, 11:55:21.376,0,0,0,0,0,0,0,0,0,
10.90002, 11:55:21.407,0,0,0,0,0,0,0,0,0,
10.92921, 11:55:21.436,0,0,0,0,0,0,0,0,0,
10.95962, 11:55:21.466,0,0,0,0,0,0,0,0,0,
10.98702, 11:55:21.495,0,0,0,0,0,0,0,0,0,
11.02814, 11:55:21.536,0,0,0,0,0,0,0,0,0,
11.06199, 11:55:21.570,0,0,0,0,0,0,0,0,0,
11.09172, 11:55:21.598,0,0,0,0,0,0,0,0,0,
11.12411, 11:55:21.631,0,0,0,0,0,0,0,0,0,
11.1538, 11:55:21.661,0,0,0,0,0,0,0,0,0,
11.20133, 11:55:21.711,0,0,0,0,0,0,0,0,0,
11.23916, 11:55:21.746,0,0,0,0,0,0,0,0,0,
11.27141, 11:55:21.779,0,0,0,0,0,0,0,0,0,
11.30056, 11:55:21.807,0,0,0,0,0,0,0,0,0,
11.3303, 11:55:21.836,0,0,0,0,0,0,0,0,0,
11.37097, 11:55:21.879,0,0,0,0,0,0,0,0,0,
11.40321, 11:55:21.911,0,0,0,0,0,0,0,0,0,
11.43384, 11:55:21.940,0,0,0,0,0,0,0,0,0,
11.46159, 11:55:21.970,0,0,0,0,0,0,0,0,0,
11.496, 11:55:22.004,0,0,0,0,0,0,0,0,0,
11.5381, 11:55:22.046,0,0,0,0,0,0,0,0,0,
11.57107, 11:55:22.079,0,0,0,0,0,0,0,0,0,
11.60128, 11:55:22.109,0,0,0,0,0,0,0,0,0,
11.63151, 11:55:22.138,0,0,0,0,0,0,0,0,0,
11.66058, 11:55:22.168,0,0,0,0,0,0,0,0,0,
11.70869, 11:55:22.217,0,0,0,0,0,0,0,0,0,
11.74299, 11:55:22.251,0,0,0,0,0,0,0,0,0,
11.7735, 11:55:22.294,0,0,0,0,0,0,0,0,0,
11.81924, 11:55:22.328,0,0,0,0,0,0,0,0,0,
11.86257, 11:55:22.373,0,0,0,0,0,0,0,0,0,
11.89738, 11:55:22.405,0,0,0,0,0,0,0,0,0,
11.92996, 11:55:22.438,0,0,0,0,0,0,0,0,0,
11.96628, 11:55:22.474,0,0,0,0,0,0,0,0,0,
12.00318, 11:55:22.512,0,0,0,0,0,0,0,0,0,
12.0571, 11:55:22.565,0,0,0,0,0,0,0,0,0,
12.09138, 11:55:22.599,0,0,0,0,0,0,0,0,0,
12.12114, 11:55:22.628,0,0,0,0,0,0,0,0,0,
12.14966, 11:55:22.657,0,0,0,0,0,0,0,0,0,
12.18231, 11:55:22.690,0,0,0,0,0,0,0,0,0,
12.224, 11:55:22.732,0,0,0,0,0,0,0,0,0,
12.25624, 11:55:22.763,0,0,0,0,0,0,0,0,0,
12.28519, 11:55:22.793,0,0,0,0,0,0,0,0,0,
12.31597, 11:55:22.822,0,0,0,0,0,0,0,0,0,
12.3507, 11:55:22.858,0,0,0,0,0,0,0,0,0,
12.39442, 11:55:22.903,0,0,0,0,0,0,0,0,0,
12.42594, 11:55:22.934,0,0,0,0,0,0,0,0,0,
12.45559, 11:55:22.963,0,0,0,0,0,0,0,0,0,
12.4865, 11:55:22.994,0,0,0,0,0,0,0,0,0,
12.52196, 11:55:23.039,0,0,0,0,0,0,0,0,0,
12.58034, 11:55:23.090,0,0,0,0,0,0,0,0,0,
12.61793, 11:55:23.125,0,0,0,0,0,0,0,0,0,
12.651, 11:55:23.159,0,0,0,0,0,0,0,0,0,
12.68547, 11:55:23.195,0,0,0,0,0,0,0,0,0,
12.73235, 11:55:23.241,0,0,0,0,0,0,0,0,0,
12.76549, 11:55:23.274,0,0,0,0,0,0,0,0,0,
12.7982, 11:55:23.306,0,0,0,0,0,0,0,0,0,
12.83101, 11:55:23.339,0,0,0,0,0,0,0,0,0,
12.86126, 11:55:23.369,0,0,0,0,0,0,0,0,0,
12.9022, 11:55:23.410,0,0,0,0,0,0,0,0,0,
12.93697, 11:55:23.445,0,0,0,0,0,0,0,0,0,
12.97287, 11:55:23.480,0,0,0,0,0,0,0,0,0,
13.00218, 11:55:23.510,0,0,0,0,0,0,0,0,0,
13.03692, 11:55:23.544,0,0,0,0,0,0,0,0,0,
13.07784, 11:55:23.586,0,0,0,0,0,0,0,0,0,
13.12858, 11:55:23.637,0,0,0,0,0,0,0,0,0,
13.1635, 11:55:23.671,0,0,0,0,0,0,0,0,0,
13.20243, 11:55:23.711,0,0,0,0,0,0,0,0,0,
13.25741, 11:55:23.765,0,0,0,0,0,0,0,0,0,
13.29358, 11:55:23.801,0,0,0,0,0,0,0,0,0,
13.32329, 11:55:23.831,0,0,0,0,0,0,0,0,0,
13.35396, 11:55:23.861,0,0,0,0,0,0,0,0,0,
13.39429, 11:55:23.903,0,0,0,0,0,0,0,0,0,
13.42615, 11:55:23.934,0,0,0,0,0,0,0,0,0,
13.457, 11:55:23.964,0,0,0,0,0,0,0,0,0,
13.48861, 11:55:23.996,0,0,0,0,0,0,0,0,0,
13.52258, 11:55:24.030,0,0,0,0,0,0,0,0,0,
13.5647, 11:55:24.073,0,0,0,0,0,0,0,0,0,
13.60175, 11:55:24.109,0,0,0,0,0,0,0,0,0,
13.63171, 11:55:24.139,0,0,0,0,0,0,0,0,0,
13.66106, 11:55:24.169,0,0,0,0,0,0,0,0,0,
13.6912, 11:55:24.198,0,0,0,0,0,0,0,0,0,
13.73812, 11:55:24.247,0,0,0,0,0,0,0,0,0,
13.77188, 11:55:24.280,0,0,0,0,0,0,0,0,0,
13.81467, 11:55:24.323,0,0,0,0,0,0,0,0,0,
13.84532, 11:55:24.353,0,0,0,0,0,0,0,0,0,
13.8869, 11:55:24.395,0,0,0,0,0,0,0,0,0,
13.91964, 11:55:24.426,0,0,0,0,0,0,0,0,0,
13.95519, 11:55:24.462,0,0,0,0,0,0,0,0,0,
13.98523, 11:55:24.493,0,0,0,0,0,0,0,0,0,
14.0148, 11:55:24.522,0,0,0,0,0,0,0,0,0,
14.05537, 11:55:24.563,0,0,0,0,0,0,0,0,0,
14.08761, 11:55:24.595,0,0,0,0,0,0,0,0,0,
14.1181, 11:55:24.625,0,0,0,0,0,0,0,0,0,
14.14881, 11:55:24.657,0,0,0,0,0,0,0,0,0,
14.18067, 11:55:24.689,0,0,0,0,0,0,0,0,0,
14.27613, 11:55:24.787,0,0,0,0,0,0,0,0,0,
14.31956, 11:55:24.829,0,0,0,0,0,0,0,0,0,
14.35776, 11:55:24.867,0,0,0,0,0,0,0,0,0,
14.41015, 11:55:24.919,0,0,0,0,0,0,0,0,0,
14.44477, 11:55:24.952,0,0,0,0,0,0,0,0,0,
14.47488, 11:55:24.982,0,0,0,0,0,0,0,0,0,
14.50306, 11:55:25.012,0,0,0,0,0,0,0,0,0,
14.53488, 11:55:25.042,0,0,0,0,0,0,0,0,0,
14.57753, 11:55:25.086,0,0,0,0,0,0,0,0,0,
14.61427, 11:55:25.122,0,0,0,0,0,0,0,0,0,
14.64524, 11:55:25.153,0,0,0,0,0,0,0,0,0,
14.67497, 11:55:25.182,0,0,0,0,0,0,0,0,0,
14.70726, 11:55:25.215,0,0,0,0,0,0,0,0,0,
14.7514, 11:55:25.259,0,0,0,0,0,0,0,0,0,
14.78471, 11:55:25.293,0,0,0,0,0,0,0,0,0,
14.81769, 11:55:25.324,0,0,0,0,0,0,0,0,0,
14.84713, 11:55:25.356,0,0,0,0,0,0,0,0,0,
14.88252, 11:55:25.391,0,0,0,0,0,0,0,0,0,
14.92488, 11:55:25.433,0,0,0,0,0,0,0,0,0,
14.9596, 11:55:25.466,0,0,0,0,0,0,0,0,0,
14.98934, 11:55:25.496,0,0,0,0,0,0,0,0,0,
15.02205, 11:55:25.529,0,0,0,0,0,0,0,0,0,
15.05195, 11:55:25.558,0,0,0,0,0,0,0,0,0,
15.09423, 11:55:25.603,0,0,0,0,0,0,0,0,0,
15.12727, 11:55:25.635,0,0,0,0,0,0,0,0,0,
15.15625, 11:55:25.662,0,0,0,0,0,0,0,0,0,
15.18454, 11:55:25.692,0,0,0,0,0,0,0,0,0,
15.21476, 11:55:25.721,0,0,0,0,0,0,0,0,0,
15.25721, 11:55:25.765,0,0,0,0,0,0,0,0,0,
15.29035, 11:55:25.798,0,0,0,0,0,0,0,0,0,
15.31998, 11:55:25.827,0,0,0,0,0,0,0,0,0,
15.34839, 11:55:25.856,0,0,0,0,0,0,0,0,0,
15.37911, 11:55:25.886,0,0,0,0,0,0,0,0,0,
15.42148, 11:55:25.931,0,0,0,0,0,0,0,0,0,
15.47898, 11:55:25.988,0,0,0,0,0,0,0,0,0,
15.51878, 11:55:26.028,0,0,0,0,0,0,0,0,0,
15.55339, 11:55:26.061,0,0,0,0,0,0,0,0,0,
15.59909, 11:55:26.107,0,0,0,0,0,0,0,0,0,
15.63012, 11:55:26.138,0,0,0,0,0,0,0,0,0,
15.6634, 11:55:26.172,0,0,0,0,0,0,0,0,0,
15.69423, 11:55:26.202,0,0,0,0,0,0,0,0,0,
15.72416, 11:55:26.233,0,0,0,0,0,0,0,0,0,
15.76787, 11:55:26.276,0,0,0,0,0,0,0,0,0,
15.80227, 11:55:26.310,0,0,0,0,0,0,0,0,0,
15.83261, 11:55:26.339,0,0,0,0,0,0,0,0,0,
15.86267, 11:55:26.371,0,0,0,0,0,0,0,0,0,
15.89299, 11:55:26.400,0,0,0,0,0,0,0,0,0,
15.93531, 11:55:26.445,0,0,0,0,0,0,0,0,0,
15.97258, 11:55:26.481,0,0,0,0,0,0,0,0,0,
16.00424, 11:55:26.512,0,0,0,0,0,0,0,0,0,
16.03506, 11:55:26.542,0,0,0,0,0,0,0,0,0,
16.06572, 11:55:26.573,0,0,0,0,0,0,0,0,0,
16.11392, 11:55:26.622,0,0,0,0,0,0,0,0,0,
16.14559, 11:55:26.654,0,0,0,0,0,0,0,0,0,
16.17712, 11:55:26.684,0,0,0,0,0,0,0,0,0,
16.20545, 11:55:26.714,0,0,0,0,0,0,0,0,0,
16.23715, 11:55:26.744,0,0,0,0,0,0,0,0,0,
16.28099, 11:55:26.790,0,0,0,0,0,0,0,0,0,
16.31233, 11:55:26.820,0,0,0,0,0,0,0,0,0,
16.34289, 11:55:26.850,0,0,0,0,0,0,0,0,0,
16.37605, 11:55:26.883,0,0,0,0,0,0,0,0,0,
16.40625, 11:55:26.913,0,0,0,0,0,0,0,0,0,
16.44772, 11:55:26.955,0,0,0,0,0,0,0,0,0,
16.48087, 11:55:26.988,0,0,0,0,0,0,0,0,0,
16.51176, 11:55:27.018,0,0,0,0,0,0,0,0,0,
16.54038, 11:55:27.048,0,0,0,0,0,0,0,0,0,
16.57028, 11:55:27.077,0,0,0,0,0,0,0,0,0,
16.61247, 11:55:27.121,0,0,0,0,0,0,0,0,0,
16.65419, 11:55:27.163,0,0,0,0,0,0,0,0,0,
16.70138, 11:55:27.212,0,0,0,0,0,0,0,0,0,
16.74118, 11:55:27.250,0,0,0,0,0,0,0,0,0,
16.7858, 11:55:27.294,0,0,0,0,0,0,0,0,0,
16.81842, 11:55:27.325,0,0,0,0,0,0,0,0,0,
16.84648, 11:55:27.354,0,0,0,0,0,0,0,0,0,
16.87651, 11:55:27.383,0,0,0,0,0,0,0,0,0,
16.90912, 11:55:27.417,0,0,0,0,0,0,0,0,0,
16.95854, 11:55:27.468,0,0,0,0,0,0,0,0,0,
16.99078, 11:55:27.498,0,0,0,0,0,0,0,0,0,
17.02209, 11:55:27.529,0,0,0,0,0,0,0,0,0,
17.05228, 11:55:27.559,0,0,0,0,0,0,0,0,0,
17.08205, 11:55:27.590,0,0,0,0,0,0,0,0,0,
17.12702, 11:55:27.635,0,0,0,0,0,0,0,0,0,
17.16019, 11:55:27.668,0,0,0,0,0,0,0,0,0,
17.1917, 11:55:27.699,0,0,0,0,0,0,0,0,0,
17.22047, 11:55:27.797,0,0,0,0,0,0,0,0,0,
17.32261, 11:55:27.834,0,0,0,0,0,0,0,0,0,
17.37915, 11:55:27.887,0,0,0,0,0,0,0,0,0,
17.41241, 11:55:27.920,0,0,0,0,0,0,0,0,0,
17.44164, 11:55:27.950,0,0,0,0,0,0,0,0,0,
17.47365, 11:55:27.980,0,0,0,0,0,0,0,0,0,
17.51774, 11:55:28.026,0,0,0,0,0,0,0,0,0,
17.55034, 11:55:28.058,0,0,0,0,0,0,0,0,0,
17.58224, 11:55:28.090,0,0,0,0,0,0,0,0,0,
17.61284, 11:55:28.121,0,0,0,0,0,0,0,0,0,
17.6424, 11:55:28.150,0,0,0,0,0,0,0,0,0,
17.68545, 11:55:28.192,0,0,0,0,0,0,0,0,0,
17.71666, 11:55:28.223,0,0,0,0,0,0,0,0,0,
17.74559, 11:55:28.254,0,0,0,0,0,0,0,0,0,
17.77625, 11:55:28.284,0,0,0,0,0,0,0,0,0,
17.81707, 11:55:28.326,0,0,0,0,0,0,0,0,0,
17.87282, 11:55:28.382,0,0,0,0,0,0,0,0,0,
17.90847, 11:55:28.416,0,0,0,0,0,0,0,0,0,
17.94228, 11:55:28.451,0,0,0,0,0,0,0,0,0,
17.97341, 11:55:28.481,0,0,0,0,0,0,0,0,0,
18.02085, 11:55:28.530,0,0,0,0,0,0,0,0,0,
18.05592, 11:55:28.562,0,0,0,0,0,0,0,0,0,
18.08415, 11:55:28.592,0,0,0,0,0,0,0,0,0,
18.11289, 11:55:28.619,0,0,0,0,0,0,0,0,0,
18.14087, 11:55:28.648,0,0,0,0,0,0,0,0,0,
18.18264, 11:55:28.690,0,0,0,0,0,0,0,0,0,
18.21464, 11:55:28.721,0,0,0,0,0,0,0,0,0,
18.24365, 11:55:28.751,0,0,0,0,0,0,0,0,0,
18.31202, 11:55:28.822,0,0,0,0,0,0,0,0,0,
18.36074, 11:55:28.870,0,0,0,0,0,0,0,0,0,
18.39613, 11:55:28.904,0,0,0,0,0,0,0,0,0,
18.43033, 11:55:28.939,0,0,0,0,0,0,0,0,0,
18.46803, 11:55:28.976,0,0,0,0,0,0,0,0,0,
18.51459, 11:55:29.023,0,0,0,0,0,0,0,0,0,
18.55128, 11:55:29.059,0,0,0,0,0,0,0,0,0,
18.58332, 11:55:29.091,0,0,0,0,0,0,0,0,0,
18.61674, 11:55:29.124,0,0,0,0,0,0,0,0,0,
18.6536, 11:55:29.161,0,0,0,0,0,0,0,0,0,
18.69835, 11:55:29.206,0,0,0,0,0,0,0,0,0,
18.73598, 11:55:29.244,0,0,0,0,0,0,0,0,0,
18.76941, 11:55:29.278,0,0,0,0,0,0,0,0,0,
18.80161, 11:55:29.309,0,0,0,0,0,0,0,0,0,
18.83515, 11:55:29.342,0,0,0,0,0,0,0,0,0,
18.87875, 11:55:29.387,0,0,0,0,0,0,0,0,0,
18.91383, 11:55:29.423,0,0,0,0,0,0,0,0,0,
18.94987, 11:55:29.458,0,0,0,0,0,0,0,0,0,
19.00144, 11:55:29.510,0,0,0,0,0,0,0,0,0,
19.0651, 11:55:29.575,0,0,0,0,0,0,0,0,0,
19.10486, 11:55:29.613,0,0,0,0,0,0,0,0,0,
19.13961, 11:55:29.646,0,0,0,0,0,0,0,0,0,
19.17244, 11:55:29.680,0,0,0,0,0,0,0,0,0,
19.21689, 11:55:29.725,0,0,0,0,0,0,0,0,0,
19.25211, 11:55:29.760,0,0,0,0,0,0,0,0,0,
19.2842, 11:55:29.792,0,0,0,0,0,0,0,0,0,
19.32146, 11:55:29.830,0,0,0,0,0,0,0,0,0,
19.35361, 11:55:29.860,0,0,0,0,0,0,0,0,0,
19.40072, 11:55:29.910,0,0,0,0,0,0,0,0,0,
19.43394, 11:55:29.941,0,0,0,0,0,0,0,0,0,
19.46401, 11:55:29.972,0,0,0,0,0,0,0,0,0,
19.49689, 11:55:30.003,0,0,0,0,0,0,0,0,0,
19.53062, 11:55:30.038,0,0,0,0,0,0,0,0,0,
19.57475, 11:55:30.082,0,0,0,0,0,0,0,0,0,
19.61063, 11:55:30.118,0,0,0,0,0,0,0,0,0,
19.64275, 11:55:30.151,0,0,0,0,0,0,0,0,0,
19.675, 11:55:30.182,0,0,0,0,0,0,0,0,0,
19.70654, 11:55:30.215,0,0,0,0,0,0,0,0,0,
19.75186, 11:55:30.259,0,0,0,0,0,0,0,0,0,
19.78559, 11:55:30.293,0,0,0,0,0,0,0,0,0,
19.8188, 11:55:30.326,0,0,0,0,0,0,0,0,0,
19.84866, 11:55:30.357,0,0,0,0,0,0,0,0,0,
19.88215, 11:55:30.389,0,0,0,0,0,0,0,0,0,
19.9327, 11:55:30.441,0,0,0,0,0,0,0,0,0,
19.96896, 11:55:30.477,0,0,0,0,0,0,0,0,0,
20.00168, 11:55:30.509,0,0,0,0,0,0,0,0,0,
20.03629, 11:55:30.543,0,0,0,0,0,0,0,0,0,
20.07952, 11:55:30.586,0,0,0,0,0,0,0,0,0,
20.11363, 11:55:30.661,0,0,0,0,0,0,0,0,0,
20.19051, 11:55:30.701,0,0,0,0,0,0,0,0,0,
20.25026, 11:55:30.759,0,0,0,0,0,0,0,0,0,
20.29069, 11:55:30.799,0,0,0,0,0,0,0,0,0,
20.32249, 11:55:30.830,0,0,0,0,0,0,0,0,0,
20.35475, 11:55:30.861,0,0,0,0,0,0,0,0,0,
20.39919, 11:55:30.907,0,0,0,0,0,0,0,0,0,
20.43274, 11:55:30.941,0,0,0,0,0,0,0,0,0,
20.46452, 11:55:30.972,0,0,0,0,0,0,0,0,0,
20.49981, 11:55:31.006,0,0,0,0,0,0,0,0,0,
20.53107, 11:55:31.039,0,0,0,0,0,0,0,0,0,
20.57656, 11:55:31.085,0,0,0,0,0,0,0,0,0,
20.61637, 11:55:31.124,0,0,0,0,0,0,0,0,0,
20.64861, 11:55:31.156,0,0,0,0,0,0,0,0,0,
20.67936, 11:55:31.186,0,0,0,0,0,0,0,0,0,
20.71334, 11:55:31.221,0,0,0,0,0,0,0,0,0,
20.75784, 11:55:31.266,0,0,0,0,0,0,0,0,0,
20.79214, 11:55:31.300,0,0,0,0,0,0,0,0,0,
20.82345, 11:55:31.331,0,0,0,0,0,0,0,0,0,
20.85474, 11:55:31.363,0,0,0,0,0,0,0,0,0,
20.88732, 11:55:31.396,0,0,0,0,0,0,0,0,0,
20.93331, 11:55:31.441,0,0,0,0,0,0,0,0,0,
20.97055, 11:55:31.478,0,0,0,0,0,0,0,0,0,
21.00267, 11:55:31.510,0,0,0,0,0,0,0,0,0,
21.03439, 11:55:31.541,0,0,0,0,0,0,0,0,0,
21.06514, 11:55:31.573,0,0,0,0,0,0,0,0,0,
21.39847, 11:55:32.057,0,0,0,0,0,0,0,0,0,
21.47524, 11:55:32.120,0,0,0,0,0,0,0,0,0,
21.51334, 11:55:32.156,0,0,0,0,0,0,0,0,0,
21.55404, 11:55:32.197,0,0,0,0,0,0,0,0,0,
21.59892, 11:55:32.241,0,0,0,0,0,0,0,0,0,
21.63518, 11:55:32.277,0,0,0,0,0,0,0,0,0,
21.66963, 11:55:32.313,0,0,0,0,0,0,0,0,0,
21.70459, 11:55:32.347,0,0,0,0,0,0,0,0,0,
21.7485, 11:55:32.391,0,0,0,0,0,0,0,0,0,
21.78298, 11:55:32.427,0,0,0,0,0,0,0,0,0,
21.82236, 11:55:32.465,0,0,0,0,0,0,0,0,0,
21.86688, 11:55:32.510,0,0,0,0,0,0,0,0,0,
21.96343, 11:55:32.610,0,0,0,0,0,0,0,0,0,
22.02212, 11:55:32.666,0,0,0,0,0,0,0,0,0,
22.35545, 11:55:33.077,0,0,0,0,0,0,0,0,0,
22.41994, 11:55:33.128,0,0,0,0,0,0,0,0,0,
22.46212, 11:55:33.171,0,0,0,0,0,0,0,0,0,
22.49683, 11:55:33.204,0,0,0,0,0,0,0,0,0,
22.54795, 11:55:33.257,0,0,0,0,0,0,0,0,0,
22.59389, 11:55:33.302,0,0,0,0,0,0,0,0,0,
22.63303, 11:55:33.370,0,0,0,0,0,0,0,0,0,
22.697, 11:55:33.406,0,0,0,0,0,0,0,0,0,
22.73365, 11:55:33.442,0,0,0,0,0,0,0,0,0,
22.77976, 11:55:33.489,0,0,0,0,0,0,0,0,0,
22.84343, 11:55:33.555,0,0,0,0,0,0,0,0,0,
22.88733, 11:55:33.595,0,0,0,0,0,0,0,0,0,
22.93673, 11:55:33.644,0,0,0,0,0,0,0,0,0,
22.99081, 11:55:33.701,0,0,0,0,0,0,0,0,0,
23.05455, 11:55:33.764,0,0,0,0,0,0,0,0,0,
23.13245, 11:55:33.842,0,0,0,0,0,0,0,0,0,
23.18882, 11:55:33.897,0,0,0,0,0,0,0,0,0,
23.25285, 11:55:33.962,0,0,0,0,0,0,0,0,0,
23.3341, 11:55:34.045,0,0,0,0,0,0,0,0,0,
23.39454, 11:55:34.104,0,0,0,0,0,0,0,0,0,
23.45477, 11:55:34.163,0,0,0,0,0,0,0,0,0,
23.53069, 11:55:34.241,0,0,0,0,0,0,0,0,0,
23.58975, 11:55:34.299,0,0,0,0,0,0,0,0,0,
23.65732, 11:55:34.366,0,0,0,0,0,0,0,0,0,
23.7318, 11:55:34.442,0,0,0,0,0,0,0,0,0,
23.78992, 11:55:34.499,0,0,0,0,0,0,0,0,0,
23.85375, 11:55:34.563,0,0,0,0,0,0,0,0,0,
23.93374, 11:55:34.644,0,0,0,0,0,0,0,0,0,
23.99742, 11:55:34.707,0,0,0,0,0,0,0,0,0,
24.05478, 11:55:34.764,0,0,0,0,0,0,0,0,0,
24.1311, 11:55:34.842,0,0,0,0,0,0,0,0,0,
24.19259, 11:55:34.903,0,0,0,0,0,0,0,0,0,
24.25444, 11:55:34.964,0,0,0,0,0,0,0,0,0,
24.3384, 11:55:35.049,0,0,0,0,0,0,0,0,0,
24.38957, 11:55:35.098,0,0,0,0,0,0,0,0,0,
24.45796, 11:55:35.167,0,0,0,0,0,0,0,0,0,
24.51314, 11:55:35.224,0,0,0,0,0,0,0,0,0,
24.55289, 11:55:35.261,0,0,0,0,0,0,0,0,0,
24.59377, 11:55:35.300,0,0,0,0,0,0,0,0,0,
24.62643, 11:55:35.334,0,0,0,0,0,0,0,0,0,
24.67265, 11:55:35.379,0,0,0,0,0,0,0,0,0,
24.70816, 11:55:35.415,0,0,0,0,0,0,0,0,0,
24.74225, 11:55:35.450,0,0,0,0,0,0,0,0,0,
24.77752, 11:55:35.484,0,0,0,0,0,0,0,0,0,
24.82298, 11:55:35.532,0,0,0,0,0,0,0,0,0,
24.85847, 11:55:35.565,0,0,0,0,0,0,0,0,0,
24.89173, 11:55:35.601,0,0,0,0,0,0,0,0,0,
24.93149, 11:55:35.638,0,0,0,0,0,0,0,0,0,
24.97729, 11:55:35.684,0,0,0,0,0,0,0,0,0,
25.01274, 11:55:35.721,0,0,0,0,0,0,0,0,0,
25.04848, 11:55:35.756,0,0,0,0,0,0,0,0,0,
25.08585, 11:55:35.794,0,0,0,0,0,0,0,0,0,
25.14016, 11:55:35.848,0,0,0,0,0,0,0,0,0,
25.17775, 11:55:35.884,0,0,0,0,0,0,0,0,0,
25.51108, 11:55:39.642,0,0,0,0,0,0,0,0,0,
25.59442, 11:55:39.710,0,0,0,0,0,0,0,0,0,
25.64736, 11:55:39.760,0,0,0,0,0,0,0,0,0,
25.73113, 11:55:39.847,0,0,0,0,0,0,0,0,0,
25.83322, 11:55:39.949,0,0,0,0,0,0,0,0,0,
25.91079, 11:55:40.026,0,0,0,0,0,0,0,0,0,
26.01007, 11:55:40.126,0,0,0,0,0,0,0,0,0,
26.09142, 11:55:40.207,0,0,0,0,0,0,0,0,0,
26.18804, 11:55:40.304,0,0,0,0,0,0,0,0,0,
26.267, 11:55:40.382,0,0,0,0,0,0,0,0,0,
26.36759, 11:55:40.483,0,0,0,0,0,0,0,0,0,
26.4456, 11:55:40.561,0,0,0,0,0,0,0,0,0,
26.54128, 11:55:40.666,0,0,0,0,0,0,0,0,0,
26.62345, 11:55:40.739,0,0,0,0,0,0,0,0,0,
26.72535, 11:55:40.842,0,0,0,0,0,0,0,0,0,
26.80186, 11:55:40.917,0,0,0,0,0,0,0,0,0,
26.89977, 11:55:41.015,0,0,0,0,0,0,0,0,0,
26.97859, 11:55:41.094,0,0,0,0,0,0,0,0,0,
27.07653, 11:55:41.193,0,0,0,0,0,0,0,0,0,
27.15614, 11:55:41.271,0,0,0,0,0,0,0,0,0,
27.25217, 11:55:41.369,0,0,0,0,0,0,0,0,0,
27.33203, 11:55:41.448,0,0,0,0,0,0,0,0,0,
27.43295, 11:55:41.549,0,0,0,0,0,0,0,0,0,
27.51161, 11:55:41.627,0,0,0,0,0,0,0,0,0,
27.60805, 11:55:41.723,0,0,0,0,0,0,0,0,0,
27.69332, 11:55:41.809,0,0,0,0,0,0,0,0,0,
27.78546, 11:55:41.902,0,0,0,0,0,0,0,0,0,
27.86901, 11:55:41.984,0,0,0,0,0,0,0,0,0,
27.96362, 11:55:42.079,0,0,0,0,0,0,0,0,0,
28.04362, 11:55:42.159,0,0,0,0,0,0,0,0,0,
28.1408, 11:55:42.257,0,0,0,0,0,0,0,0,0,
28.22254, 11:55:42.339,0,0,0,0,0,0,0,0,0,
28.31732, 11:55:42.433,0,0,0,0,0,0,0,0,0,
28.39884, 11:55:42.514,0,0,0,0,0,0,0,0,0,
28.49749, 11:55:42.614,0,0,0,0,0,0,0,0,0,
28.57633, 11:55:42.691,0,0,0,0,0,0,0,0,0,
28.67242, 11:55:42.789,0,0,0,0,0,0,0,0,0,
28.75568, 11:55:42.870,0,0,0,0,0,0,0,0,0,
28.85312, 11:55:42.968,0,0,0,0,0,0,0,0,0,
28.93067, 11:55:43.046,0,0,0,0,0,0,0,0,0,
29.03952, 11:55:43.157,0,0,0,0,0,0,0,0,0,
29.10835, 11:55:43.223,0,0,0,0,0,0,0,0,0,
29.2061, 11:55:43.322,0,0,0,0,0,0,0,0,0,
29.28733, 11:55:43.403,0,0,0,0,0,0,0,0,0,
29.38313, 11:55:43.501,0,0,0,0,0,0,0,0,0,
29.46368, 11:55:43.579,0,0,0,0,0,0,0,0,0,
29.57011, 11:55:43.686,0,0,0,0,0,0,0,0,0,
29.64186, 11:55:43.757,0,0,0,0,0,0,0,0,0,
29.73906, 11:55:43.855,0,0,0,0,0,0,0,0,0,
29.82092, 11:55:43.937,0,0,0,0,0,0,0,0,0,
29.91676, 11:55:44.033,0,0,0,0,0,0,0,0,0,
29.99692, 11:55:44.112,0,0,0,0,0,0,0,0,0,
30.10075, 11:55:44.218,0,0,0,0,0,0,0,0,0,
30.1821, 11:55:44.298,0,0,0,0,0,0,0,0,0,
30.26937, 11:55:44.385,0,0,0,0,0,0,0,0,0,
30.35546, 11:55:44.472,0,0,0,0,0,0,0,0,0,
30.45119, 11:55:44.567,0,0,0,0,0,0,0,0,0,
30.52978, 11:55:44.645,0,0,0,0,0,0,0,0,0,
30.62836, 11:55:44.744,0,0,0,0,0,0,0,0,0,
30.70942, 11:55:44.824,0,0,0,0,0,0,0,0,0,
30.80402, 11:55:44.921,0,0,0,0,0,0,0,0,0,
30.88804, 11:55:45.003,0,0,0,0,0,0,0,0,0,
30.98365, 11:55:45.100,0,0,0,0,0,0,0,0,0,
31.06193, 11:55:45.178,0,0,0,0,0,0,0,0,0,
31.16006, 11:55:45.276,0,0,0,0,0,0,0,0,0,
31.23977, 11:55:45.353,0,0,0,0,0,0,0,0,0,
31.3505, 11:55:45.468,0,0,0,0,0,0,0,0,0,
31.42062, 11:55:45.535,0,0,0,0,0,0,0,0,0,
31.51415, 11:55:45.629,0,0,0,0,0,0,0,0,0,
31.5945, 11:55:45.710,0,0,0,0,0,0,0,0,0,
31.69342, 11:55:45.809,0,0,0,0,0,0,0,0,0,
31.77175, 11:55:45.887,0,0,0,0,0,0,0,0,0,
31.86803, 11:55:45.985,0,0,0,0,0,0,0,0,0,
31.95199, 11:55:46.068,0,0,0,0,0,0,0,0,0,
32.04778, 11:55:46.164,0,0,0,0,0,0,0,0,0,
32.12726, 11:55:46.243,0,0,0,0,0,0,0,0,0,
32.22655, 11:55:46.343,0,0,0,0,0,0,0,0,0,
32.30653, 11:55:46.422,0,0,0,0,0,0,0,0,0,
32.40248, 11:55:46.519,0,0,0,0,0,0,0,0,0,
32.48626, 11:55:46.602,0,0,0,0,0,0,0,0,0,
32.58321, 11:55:46.700,0,0,0,0,0,0,0,0,0,
32.66015, 11:55:46.775,0,0,0,0,0,0,0,0,0,
32.75917, 11:55:46.875,0,0,0,0,0,0,0,0,0,
32.83886, 11:55:46.954,0,0,0,0,0,0,0,0,0,
32.93742, 11:55:47.054,0,0,0,0,0,0,0,0,0,
33.01661, 11:55:47.131,0,0,0,0,0,0,0,0,0,
33.11259, 11:55:47.229,0,0,0,0,0,0,0,0,0,
33.19484, 11:55:47.310,0,0,0,0,0,0,0,0,0,
33.29085, 11:55:47.408,0,0,0,0,0,0,0,0,0,
33.37259, 11:55:47.488,0,0,0,0,0,0,0,0,0,
33.46877, 11:55:47.585,0,0,0,0,0,0,0,0,0,
33.55002, 11:55:47.665,0,0,0,0,0,0,0,0,0,
33.65556, 11:55:47.771,0,0,0,0,0,0,0,0,0,
33.72667, 11:55:47.841,0,0,0,0,0,0,0,0,0,
33.82581, 11:55:47.942,0,0,0,0,0,0,0,0,0,
33.90444, 11:55:48.020,0,0,0,0,0,0,0,0,0,
34.00164, 11:55:48.117,0,0,0,0,0,0,0,0,0,
34.08214, 11:55:48.197,0,0,0,0,0,0,0,0,0,
34.18017, 11:55:48.297,0,0,0,0,0,0,0,0,0,
34.25804, 11:55:48.372,0,0,0,0,0,0,0,0,0,
34.35826, 11:55:48.475,0,0,0,0,0,0,0,0,0,
34.43577, 11:55:48.551,0,0,0,0,0,0,0,0,0,
34.53401, 11:55:48.650,0,0,0,0,0,0,0,0,0,
34.61593, 11:55:48.731,0,0,0,0,0,0,0,0,0,
34.71305, 11:55:48.830,0,0,0,0,0,0,0,0,0,
34.79589, 11:55:48.911,0,0,0,0,0,0,0,0,0,
34.89655, 11:55:49.012,0,0,0,0,0,0,0,0,0,
34.97104, 11:55:49.085,0,0,0,0,0,0,0,0,0,
35.06691, 11:55:49.184,0,0,0,0,0,0,0,0,0,
35.14935, 11:55:49.264,0,0,0,0,0,0,0,0,0,
35.24376, 11:55:49.361,0,0,0,0,0,0,0,0,0,
35.32509, 11:55:49.440,0,0,0,0,0,0,0,0,0,
35.4235, 11:55:49.539,0,0,0,0,0,0,0,0,0,
35.50282, 11:55:49.617,0,0,0,0,0,0,0,0,0,
35.59914, 11:55:49.714,0,0,0,0,0,0,0,0,0,
35.68179, 11:55:49.798,0,0,0,0,0,0,0,0,0,
35.77746, 11:55:49.893,0,0,0,0,0,0,0,0,0,
35.85661, 11:55:49.972,0,0,0,0,0,0,0,0,0,
35.96267, 11:55:50.081,0,0,0,0,0,0,0,0,0,
36.03517, 11:55:50.147,0,0,0,0,0,0,0,0,0,
36.13841, 11:55:50.254,0,0,0,0,0,0,0,0,0,
36.2143, 11:55:50.330,0,0,0,0,0,0,0,0,0,
36.31124, 11:55:50.428,0,0,0,0,0,0,0,0,0,
36.38907, 11:55:50.504,0,0,0,0,0,0,0,0,0,
36.48837, 11:55:50.605,0,0,0,0,0,0,0,0,0,
36.56781, 11:55:50.682,0,0,0,0,0,0,0,0,0,
36.66292, 11:55:50.779,0,0,0,0,0,0,0,0,0,
36.74776, 11:55:50.862,0,0,0,0,0,0,0,0,0,
36.84272, 11:55:50.959,0,0,0,0,0,0,0,0,0,
36.92348, 11:55:51.039,0,0,0,0,0,0,0,0,0,
37.02479, 11:55:51.141,0,0,0,0,0,0,0,0,0,
37.10389, 11:55:51.220,0,0,0,0,0,0,0,0,0,
37.19644, 11:55:51.312,0,0,0,0,0,0,0,0,0,
37.2801, 11:55:51.396,0,0,0,0,0,0,0,0,0,
37.37802, 11:55:51.493,0,0,0,0,0,0,0,0,0,
37.45531, 11:55:51.571,0,0,0,0,0,0,0,0,0,
37.55421, 11:55:51.670,0,0,0,0,0,0,0,0,0,
37.6329, 11:55:51.748,0,0,0,0,0,0,0,0,0,
37.72931, 11:55:51.845,0,0,0,0,0,0,0,0,0,
37.8138, 11:55:51.929,0,0,0,0,0,0,0,0,0,
37.90916, 11:55:52.025,0,0,0,0,0,0,0,0,0,
37.98712, 11:55:52.101,0,0,0,0,0,0,0,0,0,
38.08977, 11:55:52.206,0,0,0,0,0,0,0,0,0,
38.16978, 11:55:52.286,0,0,0,0,0,0,0,0,0,
38.31143, 11:55:52.431,0,0,0,0,0,0,0,0,0,
38.35987, 11:55:52.473,0,0,0,0,0,0,0,0,0,
38.44097, 11:55:52.557,0,0,0,0,0,0,0,0,0,
38.52501, 11:55:52.640,0,0,0,0,0,0,0,0,0,
38.62174, 11:55:52.737,0,0,0,0,0,0,0,0,0,
38.69979, 11:55:52.813,0,0,0,0,0,0,0,0,0,
38.79498, 11:55:52.911,0,0,0,0,0,0,0,0,0,
38.87857, 11:55:52.994,0,0,0,0,0,0,0,0,0,
38.97501, 11:55:53.090,0,0,0,0,0,0,0,0,0,
39.05238, 11:55:53.166,0,0,0,0,0,0,0,0,0,
39.15356, 11:55:53.269,0,0,0,0,0,0,0,0,0,
39.23186, 11:55:53.347,0,0,0,0,0,0,0,0,0,
39.33329, 11:55:53.451,0,0,0,0,0,0,0,0,0,
39.41198, 11:55:53.527,0,0,0,0,0,0,0,0,0,
39.50683, 11:55:53.624,0,0,0,0,0,0,0,0,0,
39.58705, 11:55:53.702,0,0,0,0,0,0,0,0,0,
39.68486, 11:55:53.800,0,0,0,0,0,0,0,0,0,
39.76385, 11:55:53.879,0,0,0,0,0,0,0,0,0,
39.86024, 11:55:53.977,0,0,0,0,0,0,0,0,0,
39.94326, 11:55:54.059,0,0,0,0,0,0,0,0,0,
40.03939, 11:55:54.154,0,0,0,0,0,0,0,0,0,
40.12182, 11:55:54.237,0,0,0,0,0,0,0,0,0,
40.21972, 11:55:54.335,0,0,0,0,0,0,0,0,0,
40.29855, 11:55:54.414,0,0,0,0,0,0,0,0,0,
40.39309, 11:55:54.509,0,0,0,0,0,0,0,0,0,
40.48049, 11:55:54.597,0,0,0,0,0,0,0,0,0,
40.57413, 11:55:54.689,0,0,0,0,0,0,0,0,0,
40.65314, 11:55:54.769,0,0,0,0,0,0,0,0,0,
40.75091, 11:55:54.867,0,0,0,0,0,0,0,0,0,
40.8297, 11:55:54.944,0,0,0,0,0,0,0,0,0,
40.93581, 11:55:55.052,0,0,0,0,0,0,0,0,0,
41.01238, 11:55:55.127,0,0,0,0,0,0,0,0,0,
41.10602, 11:55:55.222,0,0,0,0,0,0,0,0,0,
41.186, 11:55:55.300,0,0,0,0,0,0,0,0,0,
41.28445, 11:55:55.400,0,0,0,0,0,0,0,0,0,
41.36543, 11:55:55.481,0,0,0,0,0,0,0,0,0,
41.46047, 11:55:55.577,0,0,0,0,0,0,0,0,0,
41.54362, 11:55:55.659,0,0,0,0,0,0,0,0,0,
41.641, 11:55:55.758,0,0,0,0,0,0,0,0,0,
41.72002, 11:55:55.835,0,0,0,0,0,0,0,0,0,
41.8194, 11:55:55.935,0,0,0,0,0,0,0,0,0,
41.89648, 11:55:56.011,0,0,0,0,0,0,0,0,0,
41.99376, 11:55:56.110,0,0,0,0,0,0,0,0,0,
42.07677, 11:55:56.192,0,0,0,0,0,0,0,0,0,
42.17691, 11:55:56.293,0,0,0,0,0,0,0,0,0,
42.24998, 11:55:56.365,0,0,0,0,0,0,0,0,0,
42.35036, 11:55:56.467,0,0,0,0,0,0,0,0,0,
42.4288, 11:55:56.544,0,0,0,0,0,0,0,0,0,
42.52452, 11:55:56.641,0,0,0,0,0,0,0,0,0,
42.6083, 11:55:56.723,0,0,0,0,0,0,0,0,0,
42.70361, 11:55:56.820,0,0,0,0,0,0,0,0,0,
42.7898, 11:55:56.906,0,0,0,0,0,0,0,0,0,
42.88564, 11:55:57.001,0,0,0,0,0,0,0,0,0,
42.96137, 11:55:57.077,0,0,0,0,0,0,0,0,0,
43.05746, 11:55:57.174,0,0,0,0,0,0,0,0,0,
43.14296, 11:55:57.259,0,0,0,0,0,0,0,0,0,
43.23653, 11:55:57.351,0,0,0,0,0,0,0,0,0,
43.3162, 11:55:57.438,0,0,0,0,0,0,0,0,0,
43.38269, 11:55:57.498,0,0,0,0,0,0,0,0,0,
43.42257, 11:55:57.536,0,0,0,0,0,0,0,0,0,
43.45847, 11:55:57.570,0,0,0,0,0,0,0,0,0,
43.49136, 11:55:57.604,0,0,0,0,0,0,0,0,0,
43.5361, 11:55:57.648,0,0,0,0,0,0,0,0,0,
43.57396, 11:55:57.686,0,0,0,0,0,0,0,0,0,
43.60946, 11:55:57.722,0,0,0,0,0,0,0,0,0,
43.64304, 11:55:57.756,0,0,0,0,0,0,0,0,0,
43.7118, 11:55:57.826,0,0,0,0,0,0,0,0,0,
43.74876, 11:55:57.861,0,0,0,0,0,0,0,0,0,
43.78606, 11:55:57.898,0,0,0,0,0,0,0,0,0,
43.81997, 11:55:57.931,0,0,0,0,0,0,0,0,0,
43.86481, 11:55:57.978,0,0,0,0,0,0,0,0,0,
43.90719, 11:55:58.021,0,0,0,0,0,0,0,0,0,
43.94667, 11:55:58.060,0,0,0,0,0,0,0,0,0,
43.989, 11:55:58.102,0,0,0,0,0,0,0,0,0,
44.04335, 11:55:58.156,0,0,0,0,0,0,0,0,0,
44.07927, 11:55:58.190,0,0,0,0,0,0,0,0,0,
44.11125, 11:55:58.224,0,0,0,0,0,0,0,0,0,
44.14503, 11:55:58.257,0,0,0,0,0,0,0,0,0,
44.19215, 11:55:58.304,0,0,0,0,0,0,0,0,0,
44.22978, 11:55:58.342,0,0,0,0,0,0,0,0,0,
44.2632, 11:55:58.376,0,0,0,0,0,0,0,0,0,
44.29781, 11:55:58.409,0,0,0,0,0,0,0,0,0,
44.34138, 11:55:58.455,0,0,0,0,0,0,0,0,0,
44.37915, 11:55:58.490,0,0,0,0,0,0,0,0,0,
44.40997, 11:55:58.523,0,0,0,0,0,0,0,0,0,
44.45008, 11:55:58.562,0,0,0,0,0,0,0,0,0,
44.50016, 11:55:58.613,0,0,0,0,0,0,0,0,0,
44.53725, 11:55:58.648,0,0,0,0,0,0,0,0,0,
44.56863, 11:55:58.680,0,0,0,0,0,0,0,0,0,
44.60201, 11:55:58.714,0,0,0,0,0,0,0,0,0,
44.65537, 11:55:58.767,0,0,0,0,0,0,0,0,0,
44.69267, 11:55:58.804,0,0,0,0,0,0,0,0,0,
44.7248, 11:55:58.837,0,0,0,0,0,0,0,0,0,
44.75841, 11:55:58.869,0,0,0,0,0,0,0,0,0,
44.8028, 11:55:58.916,0,0,0,0,0,0,0,0,0,
44.84024, 11:55:58.953,0,0,0,0,0,0,0,0,0,
44.87262, 11:55:58.984,0,0,0,0,0,0,0,0,0,
44.9067, 11:55:59.019,0,0,0,0,0,0,0,0,0,
44.94007, 11:55:59.052,0,0,0,0,0,0,0,0,0,
44.98729, 11:55:59.100,0,0,0,0,0,0,0,0,0,
45.02797, 11:55:59.142,0,0,0,0,0,0,0,0,0,
45.07064, 11:55:59.185,0,0,0,0,0,0,0,0,0,
45.11733, 11:55:59.230,0,0,0,0,0,0,0,0,0,
45.16635, 11:55:59.279,0,0,0,0,0,0,0,0,0,
45.20283, 11:55:59.315,0,0,0,0,0,0,0,0,0,
45.23517, 11:55:59.346,0,0,0,0,0,0,0,0,0,
45.2963, 11:55:59.409,0,0,0,0,0,0,0,0,0,
45.35118, 11:55:59.465,0,0,0,0,0,0,0,0,0,
45.39127, 11:55:59.504,0,0,0,0,0,0,0,0,0,
45.42654, 11:55:59.540,0,0,0,0,0,0,0,0,0,
45.45903, 11:55:59.571,0,0,0,0,0,0,0,0,0,
45.50239, 11:55:59.616,0,0,0,0,0,0,0,0,0,
45.53986, 11:55:59.651,0,0,0,0,0,0,0,0,0,
45.57122, 11:55:59.683,0,0,0,0,0,0,0,0,0,
45.60572, 11:55:59.717,0,0,0,0,0,0,0,0,0,
45.64325, 11:55:59.755,0,0,0,0,0,0,0,0,0,
45.6921, 11:55:59.805,0,0,0,0,0,0,0,0,0,
45.72732, 11:55:59.841,0,0,0,0,0,0,0,0,0,
45.76283, 11:55:59.875,0,0,0,0,0,0,0,0,0,
45.79562, 11:55:59.907,0,0,0,0,0,0,0,0,0,
45.8466, 11:55:59.961,0,0,0,0,0,0,0,0,0,
45.88726, 11:55:59.999,0,0,0,0,0,0,0,0,0,
45.92387, 11:56:00.036,0,0,0,0,0,0,0,0,0,
45.95933, 11:56:00.070,0,0,0,0,0,0,0,0,0,
46.00777, 11:56:00.121,0,0,0,0,0,0,0,0,0,
46.04448, 11:56:00.157,0,0,0,0,0,0,0,0,0,
46.07836, 11:56:00.207,0,0,0,0,0,0,0,0,0,
46.12867, 11:56:00.242,0,0,0,0,0,0,0,0,0,
46.17569, 11:56:00.288,0,0,0,0,0,0,0,0,0,
46.21836, 11:56:00.332,0,0,0,0,0,0,0,0,0,
46.26099, 11:56:00.376,0,0,0,0,0,0,0,0,0,
46.29952, 11:56:00.410,0,0,0,0,0,0,0,0,0,
46.34958, 11:56:00.463,0,0,0,0,0,0,0,0,0,
46.38749, 11:56:00.499,0,0,0,0,0,0,0,0,0,
46.41927, 11:56:00.531,0,0,0,0,0,0,0,0,0,
46.45267, 11:56:00.564,0,0,0,0,0,0,0,0,0,
46.49882, 11:56:00.611,0,0,0,0,0,0,0,0,0,
46.53498, 11:56:00.647,0,0,0,0,0,0,0,0,0,
46.5687, 11:56:00.681,0,0,0,0,0,0,0,0,0,
46.60809, 11:56:00.721,0,0,0,0,0,0,0,0,0,
46.65989, 11:56:00.773,0,0,0,0,0,0,0,0,0,
46.70601, 11:56:00.821,0,0,0,0,0,0,0,0,0,
46.74578, 11:56:00.859,0,0,0,0,0,0,0,0,0,
46.7809, 11:56:00.954,0,0,0,0,0,0,0,0,0,
46.92606, 11:56:01.045,0,0,0,0,0,0,0,0,0,
46.97208, 11:56:01.109,0,0,0,0,0,0,0,0,0,
47.04142, 11:56:01.156,0,0,0,0,0,0,0,0,0,
47.09034, 11:56:01.203,0,0,0,0,0,0,0,0,0,
47.14908, 11:56:01.263,0,0,0,0,0,0,0,0,0,
47.2075, 11:56:01.321,0,0,0,0,0,0,0,0,0,
47.25007, 11:56:01.363,0,0,0,0,0,0,0,0,0,
47.2862, 11:56:01.399,0,0,0,0,0,0,0,0,0,
47.32221, 11:56:01.435,0,0,0,0,0,0,0,0,0,
47.38003, 11:56:01.494,0,0,0,0,0,0,0,0,0,
47.42775, 11:56:01.542,0,0,0,0,0,0,0,0,0,
47.46749, 11:56:01.580,0,0,0,0,0,0,0,0,0,
47.50283, 11:56:01.615,0,0,0,0,0,0,0,0,0,
47.55505, 11:56:01.667,0,0,0,0,0,0,0,0,0,
47.58995, 11:56:01.703,0,0,0,0,0,0,0,0,0,
47.62682, 11:56:01.738,0,0,0,0,0,0,0,0,0,
47.66055, 11:56:01.773,0,0,0,0,0,0,0,0,0,
47.707, 11:56:01.820,0,0,0,0,0,0,0,0,0,
47.74419, 11:56:01.857,0,0,0,0,0,0,0,0,0,
47.78018, 11:56:01.893,0,0,0,0,0,0,0,0,0,
47.81588, 11:56:01.927,0,0,0,0,0,0,0,0,0,
47.86353, 11:56:01.976,0,0,0,0,0,0,0,0,0,
47.91662, 11:56:02.029,0,0,0,0,0,0,0,0,0,
47.94938, 11:56:02.062,0,0,0,0,0,0,0,0,0,
47.98429, 11:56:02.096,0,0,0,0,0,0,0,0,0,
48.03241, 11:56:02.145,0,0,0,0,0,0,0,0,0,
48.07324, 11:56:02.185,0,0,0,0,0,0,0,0,0,
48.10684, 11:56:02.219,0,0,0,0,0,0,0,0,0,
48.14099, 11:56:02.254,0,0,0,0,0,0,0,0,0,
48.19036, 11:56:02.303,0,0,0,0,0,0,0,0,0,
48.23124, 11:56:02.344,0,0,0,0,0,0,0,0,0,
48.26389, 11:56:02.376,0,0,0,0,0,0,0,0,0,
48.2992, 11:56:02.410,0,0,0,0,0,0,0,0,0,
48.34481, 11:56:02.458,0,0,0,0,0,0,0,0,0,
48.38507, 11:56:02.497,0,0,0,0,0,0,0,0,0,
48.41843, 11:56:02.530,0,0,0,0,0,0,0,0,0,
48.45224, 11:56:02.564,0,0,0,0,0,0,0,0,0,
48.50554, 11:56:02.620,0,0,0,0,0,0,0,0,0,
48.55058, 11:56:02.664,0,0,0,0,0,0,0,0,0,
48.60106, 11:56:02.716,0,0,0,0,0,0,0,0,0,
48.63975, 11:56:02.751,0,0,0,0,0,0,0,0,0,
48.68593, 11:56:02.799,0,0,0,0,0,0,0,0,0,
48.72194, 11:56:02.835,0,0,0,0,0,0,0,0,0,
48.76898, 11:56:02.881,0,0,0,0,0,0,0,0,0,
48.80299, 11:56:02.916,0,0,0,0,0,0,0,0,0,
48.84853, 11:56:02.962,0,0,0,0,0,0,0,0,0,
48.88416, 11:56:02.996,0,0,0,0,0,0,0,0,0,
48.9254, 11:56:03.037,0,0,0,0,0,0,0,0,0,
48.96172, 11:56:03.074,0,0,0,0,0,0,0,0,0,
49.00763, 11:56:03.120,0,0,0,0,0,0,0,0,0,
49.04292, 11:56:03.156,0,0,0,0,0,0,0,0,0,
49.07595, 11:56:03.187,0,0,0,0,0,0,0,0,0,
49.1092, 11:56:03.222,0,0,0,0,0,0,0,0,0,
49.15039, 11:56:03.263,0,0,0,0,0,0,0,0,0,
49.20575, 11:56:03.319,0,0,0,0,0,0,0,0,0,
49.242, 11:56:03.355,0,0,0,0,0,0,0,0,0,
49.27619, 11:56:03.387,0,0,0,0,0,0,0,0,0,
49.31091, 11:56:03.422,0,0,0,0,0,0,0,0,0,
49.36049, 11:56:03.474,0,0,0,0,0,0,0,0,0,
49.401, 11:56:03.513,0,0,0,0,0,0,0,0,0,
49.43578, 11:56:03.547,0,0,0,0,0,0,0,0,0,
49.46849, 11:56:03.582,0,0,0,0,0,0,0,0,0,
49.51585, 11:56:03.628,0,0,0,0,0,0,0,0,0,
49.55125, 11:56:03.664,0,0,0,0,0,0,0,0,0,
49.58919, 11:56:03.702,0,0,0,0,0,0,0,0,0,
49.62562, 11:56:03.737,0,0,0,0,0,0,0,0,0,
49.67403, 11:56:03.787,0,0,0,0,0,0,0,0,0,
49.7153, 11:56:03.829,0,0,0,0,0,0,0,0,0,
49.76139, 11:56:03.875,0,0,0,0,0,0,0,0,0,
49.79953, 11:56:03.911,0,0,0,0,0,0,0,0,0,
49.85038, 11:56:03.964,0,0,0,0,0,0,0,0,0,
49.88548, 11:56:03.997,0,0,0,0,0,0,0,0,0,
49.92348, 11:56:04.035,0,0,0,0,0,0,0,0,0,
49.95629, 11:56:04.067,0,0,0,0,0,0,0,0,0,
50.00081, 11:56:04.114,0,0,0,0,0,0,0,0,0,
50.04119, 11:56:04.154,0,0,0,0,0,0,0,0,0,
50.08511, 11:56:04.198,0,0,0,0,0,0,0,0,0,
50.11967, 11:56:04.231,0,0,0,0,0,0,0,0,0,
50.16902, 11:56:04.283,0,0,0,0,0,0,0,0,0,
50.20669, 11:56:04.319,0,0,0,0,0,0,0,0,0,
50.24168, 11:56:04.354,0,0,0,0,0,0,0,0,0,
50.35092, 11:56:04.467,0,0,0,0,0,0,0,0,0,
50.40439, 11:56:04.518,0,0,0,0,0,0,0,0,0,
50.45683, 11:56:04.569,0,0,0,0,0,0,0,0,0,
50.51561, 11:56:04.629,0,0,0,0,0,0,0,0,0,
50.56781, 11:56:04.682,0,0,0,0,0,0,0,0,0,
50.60837, 11:56:04.722,0,0,0,0,0,0,0,0,0,
50.64542, 11:56:04.758,0,0,0,0,0,0,0,0,0,
50.67892, 11:56:04.790,0,0,0,0,0,0,0,0,0,
50.72852, 11:56:04.843,0,0,0,0,0,0,0,0,0,
50.76671, 11:56:04.878,0,0,0,0,0,0,0,0,0,
50.79945, 11:56:04.910,0,0,0,0,0,0,0,0,0,
50.83667, 11:56:04.950,0,0,0,0,0,0,0,0,0,
50.89622, 11:56:05.011,0,0,0,0,0,0,0,0,0,
50.94228, 11:56:05.057,0,0,0,0,0,0,0,0,0,
50.97844, 11:56:05.090,0,0,0,0,0,0,0,0,0,
51.00919, 11:56:05.121,0,0,0,0,0,0,0,0,0,
51.06023, 11:56:05.173,0,0,0,0,0,0,0,0,0,
51.09613, 11:56:05.207,0,0,0,0,0,0,0,0,0,
51.12749, 11:56:05.239,0,0,0,0,0,0,0,0,0,
51.16598, 11:56:05.278,0,0,0,0,0,0,0,0,0,
51.21825, 11:56:05.331,0,0,0,0,0,0,0,0,0,
51.25228, 11:56:05.365,0,0,0,0,0,0,0,0,0,
51.28597, 11:56:05.398,0,0,0,0,0,0,0,0,0,
51.31982, 11:56:05.431,0,0,0,0,0,0,0,0,0,
51.36835, 11:56:05.482,0,0,0,0,0,0,0,0,0,
51.4096, 11:56:05.522,0,0,0,0,0,0,0,0,0,
51.44458, 11:56:05.556,0,0,0,0,0,0,0,0,0,
51.47981, 11:56:05.590,0,0,0,0,0,0,0,0,0,
51.5296, 11:56:05.642,0,0,0,0,0,0,0,0,0,
51.56772, 11:56:05.680,0,0,0,0,0,0,0,0,0,
51.60079, 11:56:05.713,0,0,0,0,0,0,0,0,0,
51.63655, 11:56:05.747,0,0,0,0,0,0,0,0,0,
51.68201, 11:56:05.802,0,0,0,0,0,0,0,0,0,
51.72364, 11:56:05.836,0,0,0,0,0,0,0,0,0,
51.75812, 11:56:05.870,0,0,0,0,0,0,0,0,0,
51.79035, 11:56:05.903,0,0,0,0,0,0,0,0,0,
51.83779, 11:56:05.949,0,0,0,0,0,0,0,0,0,
51.87943, 11:56:05.991,0,0,0,0,0,0,0,0,0,
51.91702, 11:56:06.032,0,0,0,0,0,0,0,0,0,
51.95332, 11:56:06.066,0,0,0,0,0,0,0,0,0,
52.00546, 11:56:06.119,0,0,0,0,0,0,0,0,0,
52.0485, 11:56:06.164,0,0,0,0,0,0,0,0,0,
52.09467, 11:56:06.208,0,0,0,0,0,0,0,0,0,
52.14233, 11:56:06.256,0,0,0,0,0,0,0,0,0,
52.1906, 11:56:06.303,0,0,0,0,0,0,0,0,0,
52.22656, 11:56:06.339,0,0,0,0,0,0,0,0,0,
52.2597, 11:56:06.371,0,0,0,0,0,0,0,0,0,
52.29524, 11:56:06.408,0,0,0,0,0,0,0,0,0,
52.344, 11:56:06.457,0,0,0,0,0,0,0,0,0,
52.39098, 11:56:06.504,0,0,0,0,0,0,0,0,0,
52.42524, 11:56:06.537,0,0,0,0,0,0,0,0,0,
52.45856, 11:56:06.569,0,0,0,0,0,0,0,0,0,
52.50325, 11:56:06.618,0,0,0,0,0,0,0,0,0,
52.54305, 11:56:06.656,0,0,0,0,0,0,0,0,0,
52.57557, 11:56:06.687,0,0,0,0,0,0,0,0,0,
52.60933, 11:56:06.721,0,0,0,0,0,0,0,0,0,
52.66007, 11:56:06.774,0,0,0,0,0,0,0,0,0,
52.69746, 11:56:06.809,0,0,0,0,0,0,0,0,0,
52.73015, 11:56:06.843,0,0,0,0,0,0,0,0,0,
52.77018, 11:56:06.884,0,0,0,0,0,0,0,0,0,
52.82068, 11:56:06.935,0,0,0,0,0,0,0,0,0,
52.85738, 11:56:06.968,0,0,0,0,0,0,0,0,0,
52.88947, 11:56:07.001,0,0,0,0,0,0,0,0,0,
52.92512, 11:56:07.037,0,0,0,0,0,0,0,0,0,
52.99165, 11:56:07.105,0,0,0,0,0,0,0,0,0,
53.02974, 11:56:07.142,0,0,0,0,0,0,0,0,0,
53.09092, 11:56:07.204,0,0,0,0,0,0,0,0,0,
53.13772, 11:56:07.251,0,0,0,0,0,0,0,0,0,
53.17892, 11:56:07.293,0,0,0,0,0,0,0,0,0,
53.22057, 11:56:07.334,0,0,0,0,0,0,0,0,0,
53.26555, 11:56:07.377,0,0,0,0,0,0,0,0,0,
53.31637, 11:56:07.428,0,0,0,0,0,0,0,0,0,
53.3528, 11:56:07.465,0,0,0,0,0,0,0,0,0,
53.3898, 11:56:07.502,0,0,0,0,0,0,0,0,0,
53.42599, 11:56:07.538,0,0,0,0,0,0,0,0,0,
53.47466, 11:56:07.587,0,0,0,0,0,0,0,0,0,
53.50985, 11:56:07.622,0,0,0,0,0,0,0,0,0,
53.54411, 11:56:07.656,0,0,0,0,0,0,0,0,0,
53.57956, 11:56:07.692,0,0,0,0,0,0,0,0,0,
53.63342, 11:56:07.747,0,0,0,0,0,0,0,0,0,
53.67219, 11:56:07.785,0,0,0,0,0,0,0,0,0,
53.70638, 11:56:07.818,0,0,0,0,0,0,0,0,0,
53.74308, 11:56:07.855,0,0,0,0,0,0,0,0,0,
53.79587, 11:56:07.908,0,0,0,0,0,0,0,0,0,
53.83282, 11:56:07.945,0,0,0,0,0,0,0,0,0,
53.86932, 11:56:07.981,0,0,0,0,0,0,0,0,0,
53.90677, 11:56:08.019,0,0,0,0,0,0,0,0,0,
53.95668, 11:56:08.070,0,0,0,0,0,0,0,0,0,
53.9959, 11:56:08.108,0,0,0,0,0,0,0,0,0,
54.03015, 11:56:08.142,0,0,0,0,0,0,0,0,0,
54.06823, 11:56:08.180,0,0,0,0,0,0,0,0,0,
54.11702, 11:56:08.229,0,0,0,0,0,0,0,0,0,
54.15477, 11:56:08.267,0,0,0,0,0,0,0,0,0,
54.18933, 11:56:08.301,0,0,0,0,0,0,0,0,0,
54.22533, 11:56:08.338,0,0,0,0,0,0,0,0,0,
54.27573, 11:56:08.388,0,0,0,0,0,0,0,0,0,
54.31609, 11:56:08.430,0,0,0,0,0,0,0,0,0,
54.35794, 11:56:08.471,0,0,0,0,0,0,0,0,0,
54.41619, 11:56:08.530,0,0,0,0,0,0,0,0,0,
54.47528, 11:56:08.588,0,0,0,0,0,0,0,0,0,
54.51229, 11:56:08.625,0,0,0,0,0,0,0,0,0,
54.54722, 11:56:08.660,0,0,0,0,0,0,0,0,0,
54.58173, 11:56:08.693,0,0,0,0,0,0,0,0,0,
54.6282, 11:56:08.742,0,0,0,0,0,0,0,0,0,
54.66543, 11:56:08.777,0,0,0,0,0,0,0,0,0,
54.70057, 11:56:08.812,0,0,0,0,0,0,0,0,0,
54.73524, 11:56:08.846,0,0,0,0,0,0,0,0,0,
54.78323, 11:56:08.896,0,0,0,0,0,0,0,0,0,
54.82194, 11:56:08.934,0,0,0,0,0,0,0,0,0,
55.07209, 11:56:09.195,0,0,0,0,0,0,0,0,0,
55.13086, 11:56:09.244,0,0,0,0,0,0,0,0,0,
55.21574, 11:56:09.331,0,0,0,0,0,0,0,0,0,
55.29119, 11:56:09.406,0,0,0,0,0,0,0,0,0,
55.34623, 11:56:09.460,0,0,0,0,0,0,0,0,0,
55.38555, 11:56:09.498,0,0,0,0,0,0,0,0,0,
55.41929, 11:56:09.532,0,0,0,0,0,0,0,0,0,
55.45714, 11:56:09.569,0,0,0,0,0,0,0,0,0,
55.51595, 11:56:09.630,0,0,0,0,0,0,0,0,0,
55.57805, 11:56:09.691,0,0,0,0,0,0,0,0,0,
55.61662, 11:56:09.730,0,0,0,0,0,0,0,0,0,
55.66682, 11:56:09.780,0,0,0,0,0,0,0,0,0,
55.70594, 11:56:09.818,0,0,0,0,0,0,0,0,0,
55.73999, 11:56:09.852,0,0,0,0,0,0,0,0,0,
55.77879, 11:56:09.892,0,0,0,0,0,0,0,0,0,
55.82941, 11:56:09.942,0,0,0,0,0,0,0,0,0,
55.86734, 11:56:09.980,0,0,0,0,0,0,0,0,0,
55.90526, 11:56:10.018,0,0,0,0,0,0,0,0,0,
55.94122, 11:56:10.054,0,0,0,0,0,0,0,0,0,
55.99174, 11:56:10.105,0,0,0,0,0,0,0,0,0,
56.02987, 11:56:10.142,0,0,0,0,0,0,0,0,0,
56.06377, 11:56:10.176,0,0,0,0,0,0,0,0,0,
56.09919, 11:56:10.211,0,0,0,0,0,0,0,0,0,
56.15245, 11:56:10.265,0,0,0,0,0,0,0,0,0,
56.19132, 11:56:10.304,0,0,0,0,0,0,0,0,0,
56.2258, 11:56:10.338,0,0,0,0,0,0,0,0,0,
56.2602, 11:56:10.373,0,0,0,0,0,0,0,0,0,
56.30799, 11:56:10.420,0,0,0,0,0,0,0,0,0,
56.3446, 11:56:10.457,0,0,0,0,0,0,0,0,0,
56.38163, 11:56:10.495,0,0,0,0,0,0,0,0,0,
56.41933, 11:56:10.531,0,0,0,0,0,0,0,0,0,
56.46754, 11:56:10.581,0,0,0,0,0,0,0,0,0,
56.50655, 11:56:10.619,0,0,0,0,0,0,0,0,0,
56.54263, 11:56:10.654,0,0,0,0,0,0,0,0,0,
56.57853, 11:56:10.690,0,0,0,0,0,0,0,0,0,
56.62527, 11:56:10.738,0,0,0,0,0,0,0,0,0,
56.6666, 11:56:10.779,0,0,0,0,0,0,0,0,0,
56.70058, 11:56:10.813,0,0,0,0,0,0,0,0,0,
56.7366, 11:56:10.848,0,0,0,0,0,0,0,0,0,
56.78534, 11:56:10.899,0,0,0,0,0,0,0,0,0,
56.83112, 11:56:10.945,0,0,0,0,0,0,0,0,0,
56.87834, 11:56:10.991,0,0,0,0,0,0,0,0,0,
56.91902, 11:56:11.031,0,0,0,0,0,0,0,0,0,
56.9683, 11:56:11.081,0,0,0,0,0,0,0,0,0,
57.00795, 11:56:11.120,0,0,0,0,0,0,0,0,0,
57.04217, 11:56:11.155,0,0,0,0,0,0,0,0,0,
57.07978, 11:56:11.191,0,0,0,0,0,0,0,0,0,
57.12632, 11:56:11.240,0,0,0,0,0,0,0,0,0,
57.16422, 11:56:11.277,0,0,0,0,0,0,0,0,0,
57.20139, 11:56:11.313,0,0,0,0,0,0,0,0,0,
57.23788, 11:56:11.349,0,0,0,0,0,0,0,0,0,
57.28748, 11:56:11.400,0,0,0,0,0,0,0,0,0,
57.32809, 11:56:11.440,0,0,0,0,0,0,0,0,0,
57.36386, 11:56:11.476,0,0,0,0,0,0,0,0,0,
57.402, 11:56:11.515,0,0,0,0,0,0,0,0,0,
57.44959, 11:56:11.563,0,0,0,0,0,0,0,0,0,
57.4877, 11:56:11.600,0,0,0,0,0,0,0,0,0,
57.53083, 11:56:11.644,0,0,0,0,0,0,0,0,0,
57.56553, 11:56:11.678,0,0,0,0,0,0,0,0,0,
57.61421, 11:56:11.727,0,0,0,0,0,0,0,0,0,
57.65367, 11:56:11.765,0,0,0,0,0,0,0,0,0,
57.68686, 11:56:11.799,0,0,0,0,0,0,0,0,0,
57.72223, 11:56:11.835,0,0,0,0,0,0,0,0,0,
57.77238, 11:56:11.885,0,0,0,0,0,0,0,0,0,
57.81921, 11:56:11.933,0,0,0,0,0,0,0,0,0,
57.85503, 11:56:11.968,0,0,0,0,0,0,0,0,0,
57.88998, 11:56:12.003,0,0,0,0,0,0,0,0,0,
57.93842, 11:56:12.051,0,0,0,0,0,0,0,0,0,
57.98614, 11:56:12.100,0,0,0,0,0,0,0,0,0,
58.0289, 11:56:12.143,0,0,0,0,0,0,0,0,0,
58.06958, 11:56:12.183,0,0,0,0,0,0,0,0,0,
58.12061, 11:56:12.233,0,0,0,0,0,0,0,0,0,
58.17091, 11:56:12.283,0,0,0,0,0,0,0,0,0,
58.20857, 11:56:12.326,0,0,0,0,0,0,0,0,0,
58.24829, 11:56:12.361,0,0,0,0,0,0,0,0,0,
58.30084, 11:56:12.414,0,0,0,0,0,0,0,0,0,
58.33882, 11:56:12.450,0,0,0,0,0,0,0,0,0,
58.37374, 11:56:12.486,0,0,0,0,0,0,0,0,0,
58.41278, 11:56:12.526,0,0,0,0,0,0,0,0,0,
58.46495, 11:56:12.578,0,0,0,0,0,0,0,0,0,
58.50379, 11:56:12.616,0,0,0,0,0,0,0,0,0,
58.53974, 11:56:12.651,0,0,0,0,0,0,0,0,0,
58.57308, 11:56:12.685,0,0,0,0,0,0,0,0,0,
58.62081, 11:56:12.735,0,0,0,0,0,0,0,0,0,
58.65928, 11:56:12.772,0,0,0,0,0,0,0,0,0,
58.69485, 11:56:12.807,0,0,0,0,0,0,0,0,0,
58.72918, 11:56:12.842,0,0,0,0,0,0,0,0,0,
58.77694, 11:56:12.889,0,0,0,0,0,0,0,0,0,
58.81273, 11:56:12.925,0,0,0,0,0,0,0,0,0,
58.84623, 11:56:12.959,0,0,0,0,0,0,0,0,0,
58.88316, 11:56:13.001,0,0,0,0,0,0,0,0,0,
58.93868, 11:56:13.052,0,0,0,0,0,0,0,0,0,
58.97673, 11:56:13.090,0,0,0,0,0,0,0,0,0,
59.01035, 11:56:13.124,0,0,0,0,0,0,0,0,0,
59.04438, 11:56:13.156,0,0,0,0,0,0,0,0,0,
59.09333, 11:56:13.205,0,0,0,0,0,0,0,0,0,
59.13699, 11:56:13.250,0,0,0,0,0,0,0,0,0,
59.17848, 11:56:13.292,0,0,0,0,0,0,0,0,0,
59.22771, 11:56:13.343,0,0,0,0,0,0,0,0,0,
59.28549, 11:56:13.400,0,0,0,0,0,0,0,0,0,
59.32716, 11:56:13.440,0,0,0,0,0,0,0,0,0,
59.36488, 11:56:13.478,0,0,0,0,0,0,0,0,0,
59.401, 11:56:13.513,0,0,0,0,0,0,0,0,0,
59.45213, 11:56:13.566,0,0,0,0,0,0,0,0,0,
59.49106, 11:56:13.604,0,0,0,0,0,0,0,0,0,
59.52568, 11:56:13.638,0,0,0,0,0,0,0,0,0,
59.56047, 11:56:13.673,0,0,0,0,0,0,0,0,0,
59.61831, 11:56:13.732,0,0,0,0,0,0,0,0,0,
59.66234, 11:56:13.777,0,0,0,0,0,0,0,0,0,
59.70027, 11:56:13.814,0,0,0,0,0,0,0,0,0,
59.73475, 11:56:13.846,0,0,0,0,0,0,0,0,0,
59.78165, 11:56:13.895,0,0,0,0,0,0,0,0,0,
59.82251, 11:56:13.935,0,0,0,0,0,0,0,0,0,
59.85703, 11:56:13.968,0,0,0,0,0,0,0,0,0,
59.89043, 11:56:14.002,0,0,0,0,0,0,0,0,0,
59.93633, 11:56:14.048,0,0,0,0,0,0,0,0,0,
59.97226, 11:56:14.085,0,0,0,0,0,0,0,0,0,
60.00721, 11:56:14.119,0,0,0,0,0,0,0,0,0,
60.04296, 11:56:14.154,0,0,0,0,0,0,0,0,0,
60.09068, 11:56:14.203,0,0,0,0,0,0,0,0,0,
60.12993, 11:56:14.243,0,0,0,0,0,0,0,0,0,
60.16594, 11:56:14.278,0,0,0,0,0,0,0,0,0,
60.2057, 11:56:14.318,0,0,0,0,0,0,0,0,0,
60.25297, 11:56:14.370,0,0,0,0,0,0,0,0,0,
60.29617, 11:56:14.410,0,0,0,0,0,0,0,0,0,
60.3373, 11:56:14.450,0,0,0,0,0,0,0,0,0,
60.38337, 11:56:14.497,0,0,0,0,0,0,0,0,0,
60.44314, 11:56:14.557,0,0,0,0,0,0,0,0,0,
60.48214, 11:56:14.595,0,0,0,0,0,0,0,0,0,
60.51801, 11:56:14.630,0,0,0,0,0,0,0,0,0,
60.56716, 11:56:14.681,0,0,0,0,0,0,0,0,0,
60.6214, 11:56:14.736,0,0,0,0,0,0,0,0,0,
60.66034, 11:56:14.773,0,0,0,0,0,0,0,0,0,
60.69328, 11:56:14.805,0,0,0,0,0,0,0,0,0,
60.72856, 11:56:14.841,0,0,0,0,0,0,0,0,0,
60.77961, 11:56:14.891,0,0,0,0,0,0,0,0,0,
60.81565, 11:56:14.928,0,0,0,0,0,0,0,0,0,
60.84961, 11:56:14.962,0,0,0,0,0,0,0,0,0,
60.88389, 11:56:14.997,0,0,0,0,0,0,0,0,0,
60.93232, 11:56:15.044,0,0,0,0,0,0,0,0,0,
60.971, 11:56:15.090,0,0,0,0,0,0,0,0,0,
61.01256, 11:56:15.125,0,0,0,0,0,0,0,0,0,
61.0476, 11:56:15.161,0,0,0,0,0,0,0,0,0,
61.09501, 11:56:15.207,0,0,0,0,0,0,0,0,0,
61.13209, 11:56:15.244,0,0,0,0,0,0,0,0,0,
61.16833, 11:56:15.281,0,0,0,0,0,0,0,0,0,
61.20888, 11:56:15.321,0,0,0,0,0,0,0,0,0,
61.25655, 11:56:15.369,0,0,0,0,0,0,0,0,0,
61.29499, 11:56:15.408,0,0,0,0,0,0,0,0,0,
61.32898, 11:56:15.442,0,0,0,0,0,0,0,0,0,
61.36505, 11:56:15.478,0,0,0,0,0,0,0,0,0,
61.41607, 11:56:15.530,0,0,0,0,0,0,0,0,0,
61.45901, 11:56:15.571,0,0,0,0,0,0,0,0,0,
61.49931, 11:56:15.613,0,0,0,0,0,0,0,0,0,
61.54007, 11:56:15.657,0,0,0,0,0,0,0,0,0,
61.60398, 11:56:15.717,0,0,0,0,0,0,0,0,0,
61.64225, 11:56:15.754,0,0,0,0,0,0,0,0,0,
61.68018, 11:56:15.798,0,0,0,0,0,0,0,0,0,
61.72087, 11:56:15.833,0,0,0,0,0,0,0,0,0,
61.76835, 11:56:15.881,0,0,0,0,0,0,0,0,0,
61.80687, 11:56:15.919,0,0,0,0,0,0,0,0,0,
61.84071, 11:56:15.953,0,0,0,0,0,0,0,0,0,
61.87821, 11:56:15.990,0,0,0,0,0,0,0,0,0,
61.93584, 11:56:16.049,0,0,0,0,0,0,0,0,0,
61.97327, 11:56:16.086,0,0,0,0,0,0,0,0,0,
62.00803, 11:56:16.122,0,0,0,0,0,0,0,0,0,
62.0427, 11:56:16.156,0,0,0,0,0,0,0,0,0,
62.09028, 11:56:16.203,0,0,0,0,0,0,0,0,0,
62.13198, 11:56:16.244,0,0,0,0,0,0,0,0,0,
62.16692, 11:56:16.279,0,0,0,0,0,0,0,0,0,
62.20608, 11:56:16.318,0,0,0,0,0,0,0,0,0,
62.25381, 11:56:16.366,0,0,0,0,0,0,0,0,0,
62.289, 11:56:16.402,0,0,0,0,0,0,0,0,0,
62.32577, 11:56:16.438,0,0,0,0,0,0,0,0,0,
62.36977, 11:56:16.484,0,0,0,0,0,0,0,0,0,
62.41975, 11:56:16.533,0,0,0,0,0,0,0,0,0,
62.45689, 11:56:16.569,0,0,0,0,0,0,0,0,0,
62.49224, 11:56:16.604,0,0,0,0,0,0,0,0,0,
62.52808, 11:56:16.640,0,0,0,0,0,0,0,0,0,
62.5813, 11:56:16.694,0,0,0,0,0,0,0,0,0,
62.61845, 11:56:16.730,0,0,0,0,0,0,0,0,0,
62.65395, 11:56:16.768,0,0,0,0,0,0,0,0,0,
62.69529, 11:56:16.810,0,0,0,0,0,0,0,0,0,
62.75726, 11:56:16.872,0,0,0,0,0,0,0,0,0,
62.80212, 11:56:16.916,0,0,0,0,0,0,0,0,0,
62.8382, 11:56:16.949,0,0,0,0,0,0,0,0,0,
62.87271, 11:56:16.985,0,0,0,0,0,0,0,0,0,
62.925, 11:56:17.038,0,0,0,0,0,0,0,0,0,
62.9608, 11:56:17.073,0,0,0,0,0,0,0,0,0,
62.99711, 11:56:17.108,0,0,0,0,0,0,0,0,0,
63.03197, 11:56:17.144,0,0,0,0,0,0,0,0,0,
63.08356, 11:56:17.198,0,0,0,0,0,0,0,0,0,
63.12225, 11:56:17.235,0,0,0,0,0,0,0,0,0,
63.15627, 11:56:17.267,0,0,0,0,0,0,0,0,0,
63.19024, 11:56:17.302,0,0,0,0,0,0,0,0,0,
63.24243, 11:56:17.356,0,0,0,0,0,0,0,0,0,
63.27975, 11:56:17.391,0,0,0,0,0,0,0,0,0,
63.31282, 11:56:17.425,0,0,0,0,0,0,0,0,0,
63.34747, 11:56:17.460,0,0,0,0,0,0,0,0,0,
63.39594, 11:56:17.509,0,0,0,0,0,0,0,0,0,
63.43554, 11:56:17.548,0,0,0,0,0,0,0,0,0,
63.46964, 11:56:17.582,0,0,0,0,0,0,0,0,0,
63.5054, 11:56:17.617,0,0,0,0,0,0,0,0,0,
63.55251, 11:56:17.665,0,0,0,0,0,0,0,0,0,
63.58822, 11:56:17.702,0,0,0,0,0,0,0,0,0,
63.62597, 11:56:17.738,0,0,0,0,0,0,0,0,0,
63.66352, 11:56:17.776,0,0,0,0,0,0,0,0,0,
63.71738, 11:56:17.830,0,0,0,0,0,0,0,0,0,
63.7538, 11:56:17.866,0,0,0,0,0,0,0,0,0,
63.78887, 11:56:17.901,0,0,0,0,0,0,0,0,0,
63.83121, 11:56:17.944,0,0,0,0,0,0,0,0,0,
63.89682, 11:56:18.010,0,0,0,0,0,0,0,0,0,
63.93808, 11:56:18.050,0,0,0,0,0,0,0,0,0,
63.9716, 11:56:18.084,0,0,0,0,0,0,0,0,0,
64.00729, 11:56:18.119,0,0,0,0,0,0,0,0,0,
64.05567, 11:56:18.167,0,0,0,0,0,0,0,0,0,
64.09396, 11:56:18.206,0,0,0,0,0,0,0,0,0,
64.13157, 11:56:18.245,0,0,0,0,0,0,0,0,0,
64.16997, 11:56:18.283,0,0,0,0,0,0,0,0,0,
64.22474, 11:56:18.338,0,0,0,0,0,0,0,0,0,
64.26243, 11:56:18.390,0,0,0,0,0,0,0,0,0,
64.31908, 11:56:18.432,0,0,0,0,0,0,0,0,0,
64.35326, 11:56:18.466,0,0,0,0,0,0,0,0,0,
64.40587, 11:56:18.520,0,0,0,0,0,0,0,0,0,
64.45158, 11:56:18.564,0,0,0,0,0,0,0,0,0,
64.48904, 11:56:18.601,0,0,0,0,0,0,0,0,0,
64.52592, 11:56:18.639,0,0,0,0,0,0,0,0,0,
64.57402, 11:56:18.686,0,0,0,0,0,0,0,0,0,
64.60897, 11:56:18.722,0,0,0,0,0,0,0,0,0,
64.64632, 11:56:18.759,0,0,0,0,0,0,0,0,0,
64.68001, 11:56:18.793,0,0,0,0,0,0,0,0,0,
64.72875, 11:56:18.842,0,0,0,0,0,0,0,0,0,
64.76901, 11:56:18.882,0,0,0,0,0,0,0,0,0,
64.8026, 11:56:18.914,0,0,0,0,0,0,0,0,0,
64.83656, 11:56:18.947,0,0,0,0,0,0,0,0,0,
64.88191, 11:56:18.996,0,0,0,0,0,0,0,0,0,
64.92025, 11:56:19.033,0,0,0,0,0,0,0,0,0,
64.95513, 11:56:19.068,0,0,0,0,0,0,0,0,0,
64.99499, 11:56:19.107,0,0,0,0,0,0,0,0,0,
65.05903, 11:56:19.173,0,0,0,0,0,0,0,0,0,
65.10104, 11:56:19.214,0,0,0,0,0,0,0,0,0,
65.13464, 11:56:19.251,0,0,0,0,0,0,0,0,0,
65.17417, 11:56:19.287,0,0,0,0,0,0,0,0,0,
65.22574, 11:56:19.339,0,0,0,0,0,0,0,0,0,
65.26422, 11:56:19.377,0,0,0,0,0,0,0,0,0,
65.2991, 11:56:19.411,0,0,0,0,0,0,0,0,0,
65.33521, 11:56:19.447,0,0,0,0,0,0,0,0,0,
65.38365, 11:56:19.496,0,0,0,0,0,0,0,0,0,
65.42186, 11:56:19.534,0,0,0,0,0,0,0,0,0,
65.45553, 11:56:19.567,0,0,0,0,0,0,0,0,0,
65.49013, 11:56:19.603,0,0,0,0,0,0,0,0,0,
65.53809, 11:56:19.651,0,0,0,0,0,0,0,0,0,
65.57434, 11:56:19.687,0,0,0,0,0,0,0,0,0,
65.60873, 11:56:19.722,0,0,0,0,0,0,0,0,0,
65.64697, 11:56:19.760,0,0,0,0,0,0,0,0,0,
65.69637, 11:56:19.810,0,0,0,0,0,0,0,0,0,
65.73318, 11:56:19.845,0,0,0,0,0,0,0,0,0,
65.76789, 11:56:19.880,0,0,0,0,0,0,0,0,0,
65.80872, 11:56:19.921,0,0,0,0,0,0,0,0,0,
65.85619, 11:56:19.967,0,0,0,0,0,0,0,0,0,
65.89385, 11:56:20.007,0,0,0,0,0,0,0,0,0,
65.92739, 11:56:20.039,0,0,0,0,0,0,0,0,0,
65.9647, 11:56:20.077,0,0,0,0,0,0,0,0,0,
66.01257, 11:56:20.125,0,0,0,0,0,0,0,0,0,
66.05045, 11:56:20.163,0,0,0,0,0,0,0,0,0,
66.38378, 11:56:20.754,0,0,0,0,0,0,0,0,0,
66.45008, 11:56:20.807,0,0,0,0,0,0,0,0,0,
66.52055, 11:56:20.877,0,0,0,0,0,0,0,0,0,
66.59991, 11:56:20.957,0,0,0,0,0,0,0,0,0,
66.66582, 11:56:21.023,0,0,0,0,0,0,0,0,0,
66.70953, 11:56:21.064,0,0,0,0,0,0,0,0,0,
66.74321, 11:56:21.098,0,0,0,0,0,0,0,0,0,
66.7775, 11:56:21.132,0,0,0,0,0,0,0,0,0,
66.82484, 11:56:21.181,0,0,0,0,0,0,0,0,0,
66.8709, 11:56:21.226,0,0,0,0,0,0,0,0,0,
66.90521, 11:56:21.260,0,0,0,0,0,0,0,0,0,
66.94005, 11:56:21.294,0,0,0,0,0,0,0,0,0,
66.98946, 11:56:21.344,0,0,0,0,0,0,0,0,0,
67.02802, 11:56:21.382,0,0,0,0,0,0,0,0,0,
67.06384, 11:56:21.419,0,0,0,0,0,0,0,0,0,
67.09923, 11:56:21.454,0,0,0,0,0,0,0,0,0,
67.15021, 11:56:21.506,0,0,0,0,0,0,0,0,0,
67.18871, 11:56:21.544,0,0,0,0,0,0,0,0,0,
67.22613, 11:56:21.581,0,0,0,0,0,0,0,0,0,
67.26051, 11:56:21.615,0,0,0,0,0,0,0,0,0,
67.30888, 11:56:21.664,0,0,0,0,0,0,0,0,0,
67.34605, 11:56:21.701,0,0,0,0,0,0,0,0,0,
67.37965, 11:56:21.734,0,0,0,0,0,0,0,0,0,
67.41428, 11:56:21.769,0,0,0,0,0,0,0,0,0,
67.46088, 11:56:21.816,0,0,0,0,0,0,0,0,0,
67.50127, 11:56:21.856,0,0,0,0,0,0,0,0,0,
67.54035, 11:56:21.895,0,0,0,0,0,0,0,0,0,
67.57561, 11:56:21.929,0,0,0,0,0,0,0,0,0,
67.62114, 11:56:21.978,0,0,0,0,0,0,0,0,0,
67.65768, 11:56:22.012,0,0,0,0,0,0,0,0,0,
67.69426, 11:56:22.050,0,0,0,0,0,0,0,0,0,
67.73792, 11:56:22.093,0,0,0,0,0,0,0,0,0,
67.80421, 11:56:22.161,0,0,0,0,0,0,0,0,0,
67.84467, 11:56:22.200,0,0,0,0,0,0,0,0,0,
67.88254, 11:56:22.237,0,0,0,0,0,0,0,0,0,
67.91808, 11:56:22.272,0,0,0,0,0,0,0,0,0,
67.96658, 11:56:22.324,0,0,0,0,0,0,0,0,0,
68.00745, 11:56:22.361,0,0,0,0,0,0,0,0,0,
68.04216, 11:56:22.396,0,0,0,0,0,0,0,0,0,
68.07677, 11:56:22.430,0,0,0,0,0,0,0,0,0,
68.12563, 11:56:22.482,0,0,0,0,0,0,0,0,0,
68.16881, 11:56:22.524,0,0,0,0,0,0,0,0,0,
68.20239, 11:56:22.557,0,0,0,0,0,0,0,0,0,
68.24361, 11:56:22.598,0,0,0,0,0,0,0,0,0,
68.29021, 11:56:22.645,0,0,0,0,0,0,0,0,0,
68.32726, 11:56:22.683,0,0,0,0,0,0,0,0,0,
68.36403, 11:56:22.719,0,0,0,0,0,0,0,0,0,
68.3982, 11:56:22.751,0,0,0,0,0,0,0,0,0,
68.44434, 11:56:22.800,0,0,0,0,0,0,0,0,0,
68.4822, 11:56:22.837,0,0,0,0,0,0,0,0,0,
68.51673, 11:56:22.870,0,0,0,0,0,0,0,0,0,
68.55189, 11:56:22.907,0,0,0,0,0,0,0,0,0,
68.60014, 11:56:22.956,0,0,0,0,0,0,0,0,0,
68.64021, 11:56:22.996,0,0,0,0,0,0,0,0,0,
68.67641, 11:56:23.031,0,0,0,0,0,0,0,0,0,
68.71425, 11:56:23.070,0,0,0,0,0,0,0,0,0,
68.76162, 11:56:23.117,0,0,0,0,0,0,0,0,0,
68.80264, 11:56:23.157,0,0,0,0,0,0,0,0,0,
68.83721, 11:56:23.191,0,0,0,0,0,0,0,0,0,
68.87335, 11:56:23.228,0,0,0,0,0,0,0,0,0,
68.92754, 11:56:23.283,0,0,0,0,0,0,0,0,0,
68.97369, 11:56:23.330,0,0,0,0,0,0,0,0,0,
69.02357, 11:56:23.380,0,0,0,0,0,0,0,0,0,
69.07423, 11:56:23.429,0,0,0,0,0,0,0,0,0,
69.11006, 11:56:23.465,0,0,0,0,0,0,0,0,0,
69.14568, 11:56:23.501,0,0,0,0,0,0,0,0,0,
69.19376, 11:56:23.548,0,0,0,0,0,0,0,0,0,
69.24371, 11:56:23.599,0,0,0,0,0,0,0,0,0,
69.2859, 11:56:23.777,0,0,0,0,0,0,0,0,0,
69.45734, 11:56:23.819,0,0,0,0,0,0,0,0,0,
69.51373, 11:56:23.870,0,0,0,0,0,0,0,0,0,
69.59746, 11:56:23.955,0,0,0,0,0,0,0,0,0,
69.68025, 11:56:24.038,0,0,0,0,0,0,0,0,0,
69.74806, 11:56:24.105,0,0,0,0,0,0,0,0,0,
69.7877, 11:56:24.144,0,0,0,0,0,0,0,0,0,
69.8233, 11:56:24.179,0,0,0,0,0,0,0,0,0,
69.86413, 11:56:24.219,0,0,0,0,0,0,0,0,0,
69.91351, 11:56:24.268,0,0,0,0,0,0,0,0,0,
69.95435, 11:56:24.309,0,0,0,0,0,0,0,0,0,
69.98935, 11:56:24.345,0,0,0,0,0,0,0,0,0,
70.02534, 11:56:24.381,0,0,0,0,0,0,0,0,0,
70.0736, 11:56:24.429,0,0,0,0,0,0,0,0,0,
70.11649, 11:56:24.473,0,0,0,0,0,0,0,0,0,
70.16498, 11:56:24.522,0,0,0,0,0,0,0,0,0,
70.20492, 11:56:24.559,0,0,0,0,0,0,0,0,0,
70.25223, 11:56:24.607,0,0,0,0,0,0,0,0,0,
70.28922, 11:56:24.644,0,0,0,0,0,0,0,0,0,
70.32709, 11:56:24.683,0,0,0,0,0,0,0,0,0,
70.38587, 11:56:24.742,0,0,0,0,0,0,0,0,0,
70.43696, 11:56:24.792,0,0,0,0,0,0,0,0,0,
70.47425, 11:56:24.829,0,0,0,0,0,0,0,0,0,
70.50677, 11:56:24.861,0,0,0,0,0,0,0,0,0,
70.54269, 11:56:24.897,0,0,0,0,0,0,0,0,0,
70.59731, 11:56:24.952,0,0,0,0,0,0,0,0,0,
70.63252, 11:56:24.987,0,0,0,0,0,0,0,0,0,
70.66615, 11:56:25.021,0,0,0,0,0,0,0,0,0,
70.70238, 11:56:25.057,0,0,0,0,0,0,0,0,0,
70.74989, 11:56:25.106,0,0,0,0,0,0,0,0,0,
70.78968, 11:56:25.145,0,0,0,0,0,0,0,0,0,
70.82373, 11:56:25.178,0,0,0,0,0,0,0,0,0,
70.86049, 11:56:25.216,0,0,0,0,0,0,0,0,0,
70.91386, 11:56:25.268,0,0,0,0,0,0,0,0,0,
70.95152, 11:56:25.306,0,0,0,0,0,0,0,0,0,
70.99303, 11:56:25.347,0,0,0,0,0,0,0,0,0,
71.02644, 11:56:25.382,0,0,0,0,0,0,0,0,0,
71.07541, 11:56:25.431,0,0,0,0,0,0,0,0,0,
71.11373, 11:56:25.468,0,0,0,0,0,0,0,0,0,
71.15335, 11:56:25.508,0,0,0,0,0,0,0,0,0,
71.18997, 11:56:25.545,0,0,0,0,0,0,0,0,0,
71.24634, 11:56:25.602,0,0,0,0,0,0,0,0,0,
71.29942, 11:56:25.656,0,0,0,0,0,0,0,0,0,
71.34318, 11:56:25.700,0,0,0,0,0,0,0,0,0,
71.39848, 11:56:25.754,0,0,0,0,0,0,0,0,0,
71.44166, 11:56:25.797,0,0,0,0,0,0,0,0,0,
71.47915, 11:56:25.833,0,0,0,0,0,0,0,0,0,
71.51593, 11:56:25.871,0,0,0,0,0,0,0,0,0,
71.56461, 11:56:25.921,0,0,0,0,0,0,0,0,0,
71.60072, 11:56:25.956,0,0,0,0,0,0,0,0,0,
71.63845, 11:56:25.992,0,0,0,0,0,0,0,0,0,
71.67369, 11:56:26.029,0,0,0,0,0,0,0,0,0,
71.72066, 11:56:26.076,0,0,0,0,0,0,0,0,0,
71.7589, 11:56:26.112,0,0,0,0,0,0,0,0,0,
71.79665, 11:56:26.152,0,0,0,0,0,0,0,0,0,
71.8329, 11:56:26.188,0,0,0,0,0,0,0,0,0,
71.8823, 11:56:26.238,0,0,0,0,0,0,0,0,0,
71.92006, 11:56:26.275,0,0,0,0,0,0,0,0,0,
71.96282, 11:56:26.317,0,0,0,0,0,0,0,0,0,
71.99893, 11:56:26.353,0,0,0,0,0,0,0,0,0,
72.04389, 11:56:26.400,0,0,0,0,0,0,0,0,0,
72.08805, 11:56:26.443,0,0,0,0,0,0,0,0,0,
72.12262, 11:56:26.478,0,0,0,0,0,0,0,0,0,
72.15915, 11:56:26.515,0,0,0,0,0,0,0,0,0,
72.20882, 11:56:26.565,0,0,0,0,0,0,0,0,0,
72.24615, 11:56:26.602,0,0,0,0,0,0,0,0,0,
72.2841, 11:56:26.639,0,0,0,0,0,0,0,0,0,
72.32073, 11:56:26.675,0,0,0,0,0,0,0,0,0,
72.36668, 11:56:26.722,0,0,0,0,0,0,0,0,0,
72.4053, 11:56:26.759,0,0,0,0,0,0,0,0,0,
72.44202, 11:56:26.798,0,0,0,0,0,0,0,0,0,
72.48441, 11:56:26.840,0,0,0,0,0,0,0,0,0,
72.54803, 11:56:26.905,0,0,0,0,0,0,0,0,0,
72.58785, 11:56:26.942,0,0,0,0,0,0,0,0,0,
72.62108, 11:56:26.975,0,0,0,0,0,0,0,0,0,
72.66082, 11:56:27.015,0,0,0,0,0,0,0,0,0,
72.71404, 11:56:27.068,0,0,0,0,0,0,0,0,0,
72.75136, 11:56:27.106,0,0,0,0,0,0,0,0,0,
72.78783, 11:56:27.142,0,0,0,0,0,0,0,0,0,
72.82206, 11:56:27.177,0,0,0,0,0,0,0,0,0,
72.87029, 11:56:27.225,0,0,0,0,0,0,0,0,0,
72.90688, 11:56:27.263,0,0,0,0,0,0,0,0,0,
72.94283, 11:56:27.297,0,0,0,0,0,0,0,0,0,
72.98035, 11:56:27.335,0,0,0,0,0,0,0,0,0,
73.0304, 11:56:27.386,0,0,0,0,0,0,0,0,0,
73.06825, 11:56:27.423,0,0,0,0,0,0,0,0,0,
73.1032, 11:56:27.457,0,0,0,0,0,0,0,0,0,
73.14117, 11:56:27.496,0,0,0,0,0,0,0,0,0,
73.19231, 11:56:27.546,0,0,0,0,0,0,0,0,0,
73.2322, 11:56:27.587,0,0,0,0,0,0,0,0,0,
73.26883, 11:56:27.624,0,0,0,0,0,0,0,0,0,
73.38708, 11:56:27.747,0,0,0,0,0,0,0,0,0,
73.44756, 11:56:27.803,0,0,0,0,0,0,0,0,0,
73.50873, 11:56:27.864,0,0,0,0,0,0,0,0,0,
73.58588, 11:56:27.944,0,0,0,0,0,0,0,0,0,
73.67152, 11:56:28.030,0,0,0,0,0,0,0,0,0,
73.71721, 11:56:28.073,0,0,0,0,0,0,0,0,0,
73.75378, 11:56:28.108,0,0,0,0,0,0,0,0,0,
73.80238, 11:56:28.159,0,0,0,0,0,0,0,0,0,
73.84053, 11:56:28.194,0,0,0,0,0,0,0,0,0,
73.87419, 11:56:28.227,0,0,0,0,0,0,0,0,0,
73.90877, 11:56:28.264,0,0,0,0,0,0,0,0,0,
73.95826, 11:56:28.313,0,0,0,0,0,0,0,0,0,
73.99519, 11:56:28.349,0,0,0,0,0,0,0,0,0,
74.02715, 11:56:28.381,0,0,0,0,0,0,0,0,0,
74.06503, 11:56:28.419,0,0,0,0,0,0,0,0,0,
74.10965, 11:56:28.464,0,0,0,0,0,0,0,0,0,
74.15009, 11:56:28.504,0,0,0,0,0,0,0,0,0,
74.18963, 11:56:28.544,0,0,0,0,0,0,0,0,0,
74.22334, 11:56:28.577,0,0,0,0,0,0,0,0,0,
74.27204, 11:56:28.627,0,0,0,0,0,0,0,0,0,
74.30795, 11:56:28.663,0,0,0,0,0,0,0,0,0,
74.34094, 11:56:28.697,0,0,0,0,0,0,0,0,0,
74.37713, 11:56:28.732,0,0,0,0,0,0,0,0,0,
74.4239, 11:56:28.780,0,0,0,0,0,0,0,0,0,
74.46307, 11:56:28.818,0,0,0,0,0,0,0,0,0,
74.49686, 11:56:28.850,0,0,0,0,0,0,0,0,0,
74.52941, 11:56:28.884,0,0,0,0,0,0,0,0,0,
74.57773, 11:56:28.933,0,0,0,0,0,0,0,0,0,
74.61846, 11:56:28.974,0,0,0,0,0,0,0,0,0,
74.65683, 11:56:29.012,0,0,0,0,0,0,0,0,0,
74.6927, 11:56:29.047,0,0,0,0,0,0,0,0,0,
74.73895, 11:56:29.096,0,0,0,0,0,0,0,0,0,
74.78005, 11:56:29.136,0,0,0,0,0,0,0,0,0,
74.82393, 11:56:29.180,0,0,0,0,0,0,0,0,0,
74.87307, 11:56:29.229,0,0,0,0,0,0,0,0,0,
74.95853, 11:56:29.316,0,0,0,0,0,0,0,0,0,
75.00116, 11:56:29.358,0,0,0,0,0,0,0,0,0,
75.03881, 11:56:29.393,0,0,0,0,0,0,0,0,0,
75.10255, 11:56:29.460,0,0,0,0,0,0,0,0,0,
75.14926, 11:56:29.505,0,0,0,0,0,0,0,0,0,
75.18433, 11:56:29.540,0,0,0,0,0,0,0,0,0,
75.21784, 11:56:29.572,0,0,0,0,0,0,0,0,0,
75.27898, 11:56:29.635,0,0,0,0,0,0,0,0,0,
75.31844, 11:56:29.674,0,0,0,0,0,0,0,0,0,
75.35636, 11:56:29.711,0,0,0,0,0,0,0,0,0,
75.39666, 11:56:29.752,0,0,0,0,0,0,0,0,0,
75.4484, 11:56:29.805,0,0,0,0,0,0,0,0,0,
75.48798, 11:56:29.843,0,0,0,0,0,0,0,0,0,
75.52564, 11:56:29.881,0,0,0,0,0,0,0,0,0,
75.57073, 11:56:29.926,0,0,0,0,0,0,0,0,0,
75.63263, 11:56:29.987,0,0,0,0,0,0,0,0,0,
75.67249, 11:56:30.028,0,0,0,0,0,0,0,0,0,
75.711, 11:56:30.066,0,0,0,0,0,0,0,0,0,
75.74981, 11:56:30.105,0,0,0,0,0,0,0,0,0,
75.80704, 11:56:30.163,0,0,0,0,0,0,0,0,0,
75.84481, 11:56:30.200,0,0,0,0,0,0,0,0,0,
75.88246, 11:56:30.238,0,0,0,0,0,0,0,0,0,
75.93633, 11:56:30.292,0,0,0,0,0,0,0,0,0,
75.99754, 11:56:30.354,0,0,0,0,0,0,0,0,0,
76.17691, 11:56:30.539,0,0,0,0,0,0,0,0,0,
76.2386, 11:56:30.595,0,0,0,0,0,0,0,0,0,
76.27801, 11:56:30.634,0,0,0,0,0,0,0,0,0,
76.31395, 11:56:30.668,0,0,0,0,0,0,0,0,0,
76.35032, 11:56:30.705,0,0,0,0,0,0,0,0,0,
76.40422, 11:56:30.760,0,0,0,0,0,0,0,0,0,
76.4451, 11:56:30.800,0,0,0,0,0,0,0,0,0,
76.48831, 11:56:30.844,0,0,0,0,0,0,0,0,0,
76.52629, 11:56:30.882,0,0,0,0,0,0,0,0,0,
76.58323, 11:56:30.940,0,0,0,0,0,0,0,0,0,
76.62346, 11:56:30.979,0,0,0,0,0,0,0,0,0,
76.66109, 11:56:31.017,0,0,0,0,0,0,0,0,0,
76.70641, 11:56:31.061,0,0,0,0,0,0,0,0,0,
76.75951, 11:56:31.114,0,0,0,0,0,0,0,0,0,
76.79661, 11:56:31.151,0,0,0,0,0,0,0,0,0,
76.83676, 11:56:31.191,0,0,0,0,0,0,0,0,0,
76.88499, 11:56:31.241,0,0,0,0,0,0,0,0,0,
76.93999, 11:56:31.295,0,0,0,0,0,0,0,0,0,
76.97787, 11:56:31.334,0,0,0,0,0,0,0,0,0,
77.01447, 11:56:31.370,0,0,0,0,0,0,0,0,0,
77.10886, 11:56:31.467,0,0,0,0,0,0,0,0,0,
77.16644, 11:56:31.522,0,0,0,0,0,0,0,0,0,
77.20477, 11:56:31.560,0,0,0,0,0,0,0,0,0,
77.24366, 11:56:31.599,0,0,0,0,0,0,0,0,0,
77.28507, 11:56:31.640,0,0,0,0,0,0,0,0,0,
77.33907, 11:56:31.695,0,0,0,0,0,0,0,0,0,
77.47797, 11:56:31.837,0,0,0,0,0,0,0,0,0,
77.53191, 11:56:31.888,0,0,0,0,0,0,0,0,0,
77.57012, 11:56:31.925,0,0,0,0,0,0,0,0,0,
77.6089, 11:56:31.964,0,0,0,0,0,0,0,0,0,
77.6468, 11:56:32.001,0,0,0,0,0,0,0,0,0,
77.69617, 11:56:32.051,0,0,0,0,0,0,0,0,0,
77.73272, 11:56:32.088,0,0,0,0,0,0,0,0,0,
77.76961, 11:56:32.124,0,0,0,0,0,0,0,0,0,
77.81542, 11:56:32.170,0,0,0,0,0,0,0,0,0,
77.87309, 11:56:32.229,0,0,0,0,0,0,0,0,0,
77.91225, 11:56:32.267,0,0,0,0,0,0,0,0,0,
77.94863, 11:56:32.304,0,0,0,0,0,0,0,0,0,
77.99457, 11:56:32.350,0,0,0,0,0,0,0,0,0,
78.05025, 11:56:32.406,0,0,0,0,0,0,0,0,0,
78.09468, 11:56:32.450,0,0,0,0,0,0,0,0,0,
78.13099, 11:56:32.487,0,0,0,0,0,0,0,0,0,
78.17061, 11:56:32.526,0,0,0,0,0,0,0,0,0,
78.22802, 11:56:32.583,0,0,0,0,0,0,0,0,0,
78.26684, 11:56:32.621,0,0,0,0,0,0,0,0,0,
78.30802, 11:56:32.663,0,0,0,0,0,0,0,0,0,
78.3492, 11:56:32.705,0,0,0,0,0,0,0,0,0,
78.40567, 11:56:32.762,0,0,0,0,0,0,0,0,0,
78.44627, 11:56:32.803,0,0,0,0,0,0,0,0,0,
78.48344, 11:56:32.840,0,0,0,0,0,0,0,0,0,
78.53479, 11:56:32.892,0,0,0,0,0,0,0,0,0,
78.67849, 11:56:33.038,0,0,0,0,0,0,0,0,0,
78.72332, 11:56:33.079,0,0,0,0,0,0,0,0,0,
78.77932, 11:56:33.134,0,0,0,0,0,0,0,0,0,
78.81786, 11:56:33.173,0,0,0,0,0,0,0,0,0,
78.85286, 11:56:33.208,0,0,0,0,0,0,0,0,0,
78.88741, 11:56:33.243,0,0,0,0,0,0,0,0,0,
78.93996, 11:56:33.296,0,0,0,0,0,0,0,0,0,
78.98238, 11:56:33.338,0,0,0,0,0,0,0,0,0,
79.01949, 11:56:33.373,0,0,0,0,0,0,0,0,0,
79.06059, 11:56:33.417,0,0,0,0,0,0,0,0,0,
79.1223, 11:56:33.479,0,0,0,0,0,0,0,0,0,
79.1621, 11:56:33.517,0,0,0,0,0,0,0,0,0,
79.20219, 11:56:33.557,0,0,0,0,0,0,0,0,0,
79.23756, 11:56:33.592,0,0,0,0,0,0,0,0,0,
79.29311, 11:56:33.650,0,0,0,0,0,0,0,0,0,
79.33331, 11:56:33.689,0,0,0,0,0,0,0,0,0,
79.37136, 11:56:33.726,0,0,0,0,0,0,0,0,0,
79.41891, 11:56:33.774,0,0,0,0,0,0,0,0,0,
79.47262, 11:56:33.828,0,0,0,0,0,0,0,0,0,
79.51075, 11:56:33.866,0,0,0,0,0,0,0,0,0,
79.55225, 11:56:33.908,0,0,0,0,0,0,0,0,0,
79.59494, 11:56:33.950,0,0,0,0,0,0,0,0,0,
79.66159, 11:56:34.020,0,0,0,0,0,0,0,0,0,
79.77252, 11:56:34.132,0,0,0,0,0,0,0,0,0,
79.8321, 11:56:34.189,0,0,0,0,0,0,0,0,0,
79.87849, 11:56:34.233,0,0,0,0,0,0,0,0,0,
79.91493, 11:56:34.270,0,0,0,0,0,0,0,0,0,
79.95283, 11:56:34.308,0,0,0,0,0,0,0,0,0,
80.00214, 11:56:34.358,0,0,0,0,0,0,0,0,0,
80.03989, 11:56:34.394,0,0,0,0,0,0,0,0,0,
80.07706, 11:56:34.432,0,0,0,0,0,0,0,0,0,
80.11539, 11:56:34.471,0,0,0,0,0,0,0,0,0,
80.17036, 11:56:34.526,0,0,0,0,0,0,0,0,0,
80.20774, 11:56:34.562,0,0,0,0,0,0,0,0,0,
80.24312, 11:56:34.598,0,0,0,0,0,0,0,0,0,
80.28518, 11:56:34.641,0,0,0,0,0,0,0,0,0,
80.33927, 11:56:34.694,0,0,0,0,0,0,0,0,0,
80.37831, 11:56:34.733,0,0,0,0,0,0,0,0,0,
80.41573, 11:56:34.771,0,0,0,0,0,0,0,0,0,
80.45983, 11:56:34.815,0,0,0,0,0,0,0,0,0,
80.52007, 11:56:34.878,0,0,0,0,0,0,0,0,0,
80.56123, 11:56:34.917,0,0,0,0,0,0,0,0,0,
80.59659, 11:56:34.982,0,0,0,0,0,0,0,0,0,
80.66306, 11:56:35.021,0,0,0,0,0,0,0,0,0,
80.71931, 11:56:35.074,0,0,0,0,0,0,0,0,0,
80.75613, 11:56:35.112,0,0,0,0,0,0,0,0,0,
80.79461, 11:56:35.151,0,0,0,0,0,0,0,0,0,
80.83597, 11:56:35.192,0,0,0,0,0,0,0,0,0,
80.89259, 11:56:35.250,0,0,0,0,0,0,0,0,0,
80.94975, 11:56:35.327,0,0,0,0,0,0,0,0,0,
81.01045, 11:56:35.367,0,0,0,0,0,0,0,0,0,
81.06105, 11:56:35.416,0,0,0,0,0,0,0,0,0,
81.10557, 11:56:35.460,0,0,0,0,0,0,0,0,0,
81.14883, 11:56:35.503,0,0,0,0,0,0,0,0,0,
81.18752, 11:56:35.543,0,0,0,0,0,0,0,0,0,
81.24122, 11:56:35.597,0,0,0,0,0,0,0,0,0,
81.28961, 11:56:35.668,0,0,0,0,0,0,0,0,0,
81.34966, 11:56:35.707,0,0,0,0,0,0,0,0,0,
81.4053, 11:56:35.763,0,0,0,0,0,0,0,0,0,
81.44563, 11:56:35.967,0,0,0,0,0,0,0,0,0,
81.65106, 11:56:36.016,0,0,0,0,0,0,0,0,0,
81.72131, 11:56:36.079,0,0,0,0,0,0,0,0,0,
81.76115, 11:56:36.117,0,0,0,0,0,0,0,0,0,
81.79731, 11:56:36.162,0,0,0,0,0,0,0,0,0,
81.84132, 11:56:36.198,0,0,0,0,0,0,0,0,0,
81.88823, 11:56:36.244,0,0,0,0,0,0,0,0,0,
81.92691, 11:56:36.283,0,0,0,0,0,0,0,0,0,
81.96374, 11:56:36.318,0,0,0,0,0,0,0,0,0,
82.00275, 11:56:36.357,0,0,0,0,0,0,0,0,0,
82.05334, 11:56:36.410,0,0,0,0,0,0,0,0,0,
82.10016, 11:56:36.458,0,0,0,0,0,0,0,0,0,
82.3771, 11:56:36.745,0,0,0,0,0,0,0,0,0,
82.46367, 11:56:36.822,0,0,0,0,0,0,0,0,0,
Elapsed_Time, System_Time, Euler_Roll, Euler_Pitch, Euler_Yaw, Gyro_Roll, Gyro_Pitch, Gyro_Yaw, Accel_x, Accel_y, Accel_z
0.02, 12:18:24.773,0,0,0,0,0,0,0,0,0,
0.04, 12:18:25.171,0,0,0,0,0,0,0,0,0,
0.3733333, 12:18:44.263,0,0,0,0,0,0,0,0,0,
0.5068877, 12:18:44.367,0,0,0,0,0,0,0,0,0,
0.634383, 12:18:44.488,0,0,0,0,0,0,0,0,0,
0.6831481, 12:18:44.535,0,0,0,0,0,0,0,0,0,
0.7728611, 12:18:44.626,0,0,0,0,0,0,0,0,0,
0.8341962, 12:18:44.685,0,0,0,0,0,0,0,0,0,
1.154916, 12:18:45.022,0,0,0,0,0,0,0,0,0,
1.246496, 12:18:45.100,0,0,0,0,0,0,0,0,0,
1.297149, 12:18:45.148,0,0,0,0,0,0,0,0,0,
1.34647, 12:18:45.198,0,0,0,0,0,0,0,0,0,
1.405833, 12:18:45.257,0,0,0,0,0,0,0,0,0,
1.451552, 12:18:45.303,0,0,0,0,0,0,0,0,0,
1.49273, 12:18:45.345,0,0,0,0,0,0,0,0,0,
1.541903, 12:18:45.393,0,0,0,0,0,0,0,0,0,
1.605442, 12:18:45.458,0,0,0,0,0,0,0,0,0,
1.676193, 12:18:45.530,0,0,0,0,0,0,0,0,0,
1.736096, 12:18:45.587,0,0,0,0,0,0,0,0,0,
1.800893, 12:18:45.654,0,0,0,0,0,0,0,0,0,
1.846916, 12:18:45.698,0,0,0,0,0,0,0,0,0,
1.888614, 12:18:45.739,0,0,0,0,0,0,0,0,0,
1.945093, 12:18:45.796,0,0,0,0,0,0,0,0,0,
2.003131, 12:18:45.856,0,0,0,0,0,0,0,0,0,
2.043277, 12:18:45.894,0,0,0,0,0,0,0,0,0,
2.1104, 12:18:45.962,0,0,0,0,0,0,0,0,0,
2.231418, 12:18:46.086,0,0,0,0,0,0,0,0,0,
2.286432, 12:18:46.138,0,0,0,0,0,0,0,0,0,
2.336637, 12:18:46.297,0,0,0,0,0,0,0,0,0,
2.486718, 12:18:46.343,0,0,0,0,0,0,0,0,0,
2.616911, 12:18:46.472,0,0,0,0,0,0,0,0,0,
2.729359, 12:18:46.584,0,0,0,0,0,0,0,0,0,
2.789869, 12:18:46.641,0,0,0,0,0,0,0,0,0,
2.844745, 12:18:46.698,0,0,0,0,0,0,0,0,0,
2.911215, 12:18:46.763,0,0,0,0,0,0,0,0,0,
2.965054, 12:18:46.818,0,0,0,0,0,0,0,0,0,
3.007045, 12:18:46.857,0,0,0,0,0,0,0,0,0,
3.044088, 12:18:46.896,0,0,0,0,0,0,0,0,0,
3.083105, 12:18:46.933,0,0,0,0,0,0,0,0,0,
3.141622, 12:18:46.992,0,0,0,0,0,0,0,0,0,
3.186988, 12:18:47.039,0,0,0,0,0,0,0,0,0,
3.225895, 12:18:47.076,0,0,0,0,0,0,0,0,0,
3.270415, 12:18:47.123,0,0,0,0,0,0,0,0,0,
3.330431, 12:18:47.181,0,0,0,0,0,0,0,0,0,
3.374533, 12:18:47.225,0,0,0,0,0,0,0,0,0,
3.41226, 12:18:47.263,0,0,0,0,0,0,0,0,0,
3.452405, 12:18:47.302,0,0,0,0,0,0,0,0,0,
3.505948, 12:18:47.357,0,0,0,0,0,0,0,0,0,
3.550047, 12:18:47.401,0,0,0,0,0,0,0,0,0,
3.593519, 12:18:47.444,0,0,0,0,0,0,0,0,0,
3.636733, 12:18:47.487,0,0,0,0,0,0,0,0,0,
3.698603, 12:18:47.551,0,0,0,0,0,0,0,0,0,
3.740574, 12:18:47.592,0,0,0,0,0,0,0,0,0,
3.779461, 12:18:47.629,0,0,0,0,0,0,0,0,0,
3.821162, 12:18:47.673,0,0,0,0,0,0,0,0,0,
3.875392, 12:18:47.725,0,0,0,0,0,0,0,0,0,
3.917182, 12:18:47.767,0,0,0,0,0,0,0,0,0,
3.955389, 12:18:47.805,0,0,0,0,0,0,0,0,0,
4.027615, 12:18:47.881,0,0,0,0,0,0,0,0,0,
4.124118, 12:18:47.978,0,0,0,0,0,0,0,0,0,
4.169926, 12:18:48.021,0,0,0,0,0,0,0,0,0,
4.210118, 12:18:48.062,0,0,0,0,0,0,0,0,0,
4.269473, 12:18:48.121,0,0,0,0,0,0,0,0,0,
4.316214, 12:18:48.166,0,0,0,0,0,0,0,0,0,
4.362424, 12:18:48.216,0,0,0,0,0,0,0,0,0,
4.423805, 12:18:48.275,0,0,0,0,0,0,0,0,0,
4.469949, 12:18:48.320,0,0,0,0,0,0,0,0,0,
4.520476, 12:18:48.373,0,0,0,0,0,0,0,0,0,
4.578325, 12:18:48.428,0,0,0,0,0,0,0,0,0,
4.620076, 12:18:48.471,0,0,0,0,0,0,0,0,0,
4.663298, 12:18:48.513,0,0,0,0,0,0,0,0,0,
4.703128, 12:18:48.553,0,0,0,0,0,0,0,0,0,
4.759278, 12:18:48.609,0,0,0,0,0,0,0,0,0,
4.797702, 12:18:48.648,0,0,0,0,0,0,0,0,0,
4.837061, 12:18:48.687,0,0,0,0,0,0,0,0,0,
4.882398, 12:18:48.733,0,0,0,0,0,0,0,0,0,
4.949718, 12:18:48.801,0,0,0,0,0,0,0,0,0,
4.993592, 12:18:48.843,0,0,0,0,0,0,0,0,0,
5.032903, 12:18:48.883,0,0,0,0,0,0,0,0,0,
5.083875, 12:18:48.934,0,0,0,0,0,0,0,0,0,
5.125772, 12:18:48.977,0,0,0,0,0,0,0,0,0,
5.166485, 12:18:49.017,0,0,0,0,0,0,0,0,0,
5.214584, 12:18:49.068,0,0,0,0,0,0,0,0,0,
5.295663, 12:18:49.148,0,0,0,0,0,0,0,0,0,
5.33988, 12:18:49.190,0,0,0,0,0,0,0,0,0,
5.380535, 12:18:49.232,0,0,0,0,0,0,0,0,0,
5.437347, 12:18:49.289,0,0,0,0,0,0,0,0,0,
5.480177, 12:18:49.331,0,0,0,0,0,0,0,0,0,
5.527764, 12:18:49.378,0,0,0,0,0,0,0,0,0,
5.565673, 12:18:49.416,0,0,0,0,0,0,0,0,0,
5.625024, 12:18:49.481,0,0,0,0,0,0,0,0,0,
5.673797, 12:18:49.524,0,0,0,0,0,0,0,0,0,
5.71182, 12:18:49.561,0,0,0,0,0,0,0,0,0,
5.752402, 12:18:49.604,0,0,0,0,0,0,0,0,0,
5.818469, 12:18:49.670,0,0,0,0,0,0,0,0,0,
5.864996, 12:18:49.717,0,0,0,0,0,0,0,0,0,
5.910048, 12:18:49.760,0,0,0,0,0,0,0,0,0,
5.964115, 12:18:49.817,0,0,0,0,0,0,0,0,0,
6.007927, 12:18:49.858,0,0,0,0,0,0,0,0,0,
6.048335, 12:18:49.900,0,0,0,0,0,0,0,0,0,
6.087842, 12:18:49.937,0,0,0,0,0,0,0,0,0,
6.150653, 12:18:50.002,0,0,0,0,0,0,0,0,0,
6.197899, 12:18:50.048,0,0,0,0,0,0,0,0,0,
6.235676, 12:18:50.085,0,0,0,0,0,0,0,0,0,
6.277571, 12:18:50.128,0,0,0,0,0,0,0,0,0,
6.333387, 12:18:50.185,0,0,0,0,0,0,0,0,0,
6.386411, 12:18:50.237,0,0,0,0,0,0,0,0,0,
6.443892, 12:18:50.296,0,0,0,0,0,0,0,0,0,
6.500591, 12:18:50.351,0,0,0,0,0,0,0,0,0,
6.540893, 12:18:50.391,0,0,0,0,0,0,0,0,0,
6.580701, 12:18:50.433,0,0,0,0,0,0,0,0,0,
6.620878, 12:18:50.472,0,0,0,0,0,0,0,0,0,
6.686322, 12:18:50.538,0,0,0,0,0,0,0,0,0,
6.726066, 12:18:50.575,0,0,0,0,0,0,0,0,0,
6.769564, 12:18:50.621,0,0,0,0,0,0,0,0,0,
6.81284, 12:18:50.663,0,0,0,0,0,0,0,0,0,
6.871909, 12:18:50.722,0,0,0,0,0,0,0,0,0,
6.910408, 12:18:50.761,0,0,0,0,0,0,0,0,0,
6.948304, 12:18:50.799,0,0,0,0,0,0,0,0,0,
6.985419, 12:18:50.835,0,0,0,0,0,0,0,0,0,
7.049563, 12:18:50.902,0,0,0,0,0,0,0,0,0,
7.089181, 12:18:50.939,0,0,0,0,0,0,0,0,0,
7.129272, 12:18:50.980,0,0,0,0,0,0,0,0,0,
7.17, 12:18:51.019,0,0,0,0,0,0,0,0,0,
7.23069, 12:18:51.081,0,0,0,0,0,0,0,0,0,
7.278887, 12:18:51.130,0,0,0,0,0,0,0,0,0,
7.319488, 12:18:51.169,0,0,0,0,0,0,0,0,0,
7.360251, 12:18:51.212,0,0,0,0,0,0,0,0,0,
7.413629, 12:18:51.264,0,0,0,0,0,0,0,0,0,
7.456856, 12:18:51.307,0,0,0,0,0,0,0,0,0,
7.533087, 12:18:51.387,0,0,0,0,0,0,0,0,0,
7.610204, 12:18:51.464,0,0,0,0,0,0,0,0,0,
7.659188, 12:18:51.510,0,0,0,0,0,0,0,0,0,
7.703766, 12:18:51.554,0,0,0,0,0,0,0,0,0,
7.753199, 12:18:51.604,0,0,0,0,0,0,0,0,0,
7.792928, 12:18:51.644,0,0,0,0,0,0,0,0,0,
7.831595, 12:18:51.682,0,0,0,0,0,0,0,0,0,
7.870341, 12:18:51.719,0,0,0,0,0,0,0,0,0,
7.921274, 12:18:51.772,0,0,0,0,0,0,0,0,0,
7.965776, 12:18:51.815,0,0,0,0,0,0,0,0,0,
8.002305, 12:18:51.852,0,0,0,0,0,0,0,0,0,
8.042489, 12:18:51.893,0,0,0,0,0,0,0,0,0,
8.094358, 12:18:51.945,0,0,0,0,0,0,0,0,0,
8.135967, 12:18:51.986,0,0,0,0,0,0,0,0,0,
8.173705, 12:18:52.024,0,0,0,0,0,0,0,0,0,
8.213082, 12:18:52.064,0,0,0,0,0,0,0,0,0,
8.270323, 12:18:52.122,0,0,0,0,0,0,0,0,0,
8.312197, 12:18:52.163,0,0,0,0,0,0,0,0,0,
8.355688, 12:18:52.206,0,0,0,0,0,0,0,0,0,
8.394543, 12:18:52.244,0,0,0,0,0,0,0,0,0,
8.45112, 12:18:52.302,0,0,0,0,0,0,0,0,0,
8.490746, 12:18:52.341,0,0,0,0,0,0,0,0,0,
8.526709, 12:18:52.380,0,0,0,0,0,0,0,0,0,
8.570377, 12:18:52.421,0,0,0,0,0,0,0,0,0,
8.639431, 12:18:52.489,0,0,0,0,0,0,0,0,0,
8.676952, 12:18:52.526,0,0,0,0,0,0,0,0,0,
8.723585, 12:18:52.575,0,0,0,0,0,0,0,0,0,
8.80236, 12:18:52.658,0,0,0,0,0,0,0,0,0,
8.861112, 12:18:52.713,0,0,0,0,0,0,0,0,0,
8.912763, 12:18:52.763,0,0,0,0,0,0,0,0,0,
8.961805, 12:18:52.812,0,0,0,0,0,0,0,0,0,
9.001938, 12:18:52.852,0,0,0,0,0,0,0,0,0,
9.040764, 12:18:52.891,0,0,0,0,0,0,0,0,0,
9.084281, 12:18:52.935,0,0,0,0,0,0,0,0,0,
9.138905, 12:18:52.989,0,0,0,0,0,0,0,0,0,
9.180505, 12:18:53.033,0,0,0,0,0,0,0,0,0,
9.21961, 12:18:53.068,0,0,0,0,0,0,0,0,0,
9.257764, 12:18:53.108,0,0,0,0,0,0,0,0,0,
9.319602, 12:18:53.171,0,0,0,0,0,0,0,0,0,
9.361928, 12:18:53.214,0,0,0,0,0,0,0,0,0,
9.403069, 12:18:53.253,0,0,0,0,0,0,0,0,0,
9.443189, 12:18:53.293,0,0,0,0,0,0,0,0,0,
9.503184, 12:18:53.355,0,0,0,0,0,0,0,0,0,
9.5499, 12:18:53.399,0,0,0,0,0,0,0,0,0,
9.592252, 12:18:53.444,0,0,0,0,0,0,0,0,0,
9.634108, 12:18:53.485,0,0,0,0,0,0,0,0,0,
9.717424, 12:18:53.569,0,0,0,0,0,0,0,0,0,
9.767919, 12:18:53.619,0,0,0,0,0,0,0,0,0,
9.808759, 12:18:53.658,0,0,0,0,0,0,0,0,0,
9.86084, 12:18:53.712,0,0,0,0,0,0,0,0,0,
9.903101, 12:18:53.754,0,0,0,0,0,0,0,0,0,
9.943996, 12:18:53.794,0,0,0,0,0,0,0,0,0,
10.00458, 12:18:53.857,0,0,0,0,0,0,0,0,0,
10.06939, 12:18:53.920,0,0,0,0,0,0,0,0,0,
10.11003, 12:18:53.960,0,0,0,0,0,0,0,0,0,
10.14874, 12:18:53.998,0,0,0,0,0,0,0,0,0,
10.19183, 12:18:54.041,0,0,0,0,0,0,0,0,0,
10.25337, 12:18:54.106,0,0,0,0,0,0,0,0,0,
10.3006, 12:18:54.151,0,0,0,0,0,0,0,0,0,
10.34429, 12:18:54.195,0,0,0,0,0,0,0,0,0,
10.39661, 12:18:54.247,0,0,0,0,0,0,0,0,0,
10.43952, 12:18:54.290,0,0,0,0,0,0,0,0,0,
10.47614, 12:18:54.326,0,0,0,0,0,0,0,0,0,
10.51416, 12:18:54.364,0,0,0,0,0,0,0,0,0,
10.56726, 12:18:54.418,0,0,0,0,0,0,0,0,0,
10.61058, 12:18:54.462,0,0,0,0,0,0,0,0,0,
10.65029, 12:18:54.501,0,0,0,0,0,0,0,0,0,
10.68986, 12:18:54.540,0,0,0,0,0,0,0,0,0,
10.7533, 12:18:54.605,0,0,0,0,0,0,0,0,0,
10.7979, 12:18:54.648,0,0,0,0,0,0,0,0,0,
10.84318, 12:18:54.720,0,0,0,0,0,0,0,0,0,
10.93435, 12:18:54.786,0,0,0,0,0,0,0,0,0,
10.97388, 12:18:54.826,0,0,0,0,0,0,0,0,0,
11.01161, 12:18:54.862,0,0,0,0,0,0,0,0,0,
11.06923, 12:18:54.920,0,0,0,0,0,0,0,0,0,
11.13594, 12:18:54.987,0,0,0,0,0,0,0,0,0,
11.19812, 12:18:55.049,0,0,0,0,0,0,0,0,0,
11.26819, 12:18:55.119,0,0,0,0,0,0,0,0,0,
11.30919, 12:18:55.158,0,0,0,0,0,0,0,0,0,
11.35007, 12:18:55.200,0,0,0,0,0,0,0,0,0,
11.40367, 12:18:55.255,0,0,0,0,0,0,0,0,0,
11.44359, 12:18:55.294,0,0,0,0,0,0,0,0,0,
11.48217, 12:18:55.332,0,0,0,0,0,0,0,0,0,
11.52389, 12:18:55.374,0,0,0,0,0,0,0,0,0,
11.58686, 12:18:55.443,0,0,0,0,0,0,0,0,0,
11.63528, 12:18:55.485,0,0,0,0,0,0,0,0,0,
11.67657, 12:18:55.528,0,0,0,0,0,0,0,0,0,
11.73133, 12:18:55.582,0,0,0,0,0,0,0,0,0,
11.77628, 12:18:55.626,0,0,0,0,0,0,0,0,0,
11.81358, 12:18:55.664,0,0,0,0,0,0,0,0,0,
11.85004, 12:18:55.701,0,0,0,0,0,0,0,0,0,
11.90802, 12:18:55.759,0,0,0,0,0,0,0,0,0,
11.94802, 12:18:55.799,0,0,0,0,0,0,0,0,0,
11.98858, 12:18:55.839,0,0,0,0,0,0,0,0,0,
12.03682, 12:18:55.887,0,0,0,0,0,0,0,0,0,
12.09224, 12:18:55.943,0,0,0,0,0,0,0,0,0,
12.13337, 12:18:55.984,0,0,0,0,0,0,0,0,0,
12.16976, 12:18:56.020,0,0,0,0,0,0,0,0,0,
12.21112, 12:18:56.062,0,0,0,0,0,0,0,0,0,
12.26595, 12:18:56.117,0,0,0,0,0,0,0,0,0,
12.31054, 12:18:56.161,0,0,0,0,0,0,0,0,0,
12.35465, 12:18:56.207,0,0,0,0,0,0,0,0,0,
12.40396, 12:18:56.256,0,0,0,0,0,0,0,0,0,
12.46807, 12:18:56.318,0,0,0,0,0,0,0,0,0,
12.50971, 12:18:56.360,0,0,0,0,0,0,0,0,0,
12.54557, 12:18:56.397,0,0,0,0,0,0,0,0,0,
12.58607, 12:18:56.437,0,0,0,0,0,0,0,0,0,
12.64339, 12:18:56.495,0,0,0,0,0,0,0,0,0,
12.68763, 12:18:56.537,0,0,0,0,0,0,0,0,0,
12.72371, 12:18:56.574,0,0,0,0,0,0,0,0,0,
12.76078, 12:18:56.611,0,0,0,0,0,0,0,0,0,
12.81389, 12:18:56.665,0,0,0,0,0,0,0,0,0,
12.85119, 12:18:56.701,0,0,0,0,0,0,0,0,0,
12.89213, 12:18:56.742,0,0,0,0,0,0,0,0,0,
12.92915, 12:18:56.779,0,0,0,0,0,0,0,0,0,
12.9829, 12:18:56.834,0,0,0,0,0,0,0,0,0,
13.02077, 12:18:56.871,0,0,0,0,0,0,0,0,0,
13.07275, 12:18:56.923,0,0,0,0,0,0,0,0,0,
13.12075, 12:18:56.972,0,0,0,0,0,0,0,0,0,
13.17206, 12:18:57.023,0,0,0,0,0,0,0,0,0,
13.21216, 12:18:57.064,0,0,0,0,0,0,0,0,0,
13.25073, 12:18:57.101,0,0,0,0,0,0,0,0,0,
13.28883, 12:18:57.139,0,0,0,0,0,0,0,0,0,
13.34906, 12:18:57.199,0,0,0,0,0,0,0,0,0,
13.39117, 12:18:57.241,0,0,0,0,0,0,0,0,0,
13.42893, 12:18:57.279,0,0,0,0,0,0,0,0,0,
13.4653, 12:18:57.316,0,0,0,0,0,0,0,0,0,
13.52354, 12:18:57.375,0,0,0,0,0,0,0,0,0,
13.58154, 12:18:57.434,0,0,0,0,0,0,0,0,0,
13.62301, 12:18:57.474,0,0,0,0,0,0,0,0,0,
13.67811, 12:18:57.528,0,0,0,0,0,0,0,0,0,
13.72501, 12:18:57.576,0,0,0,0,0,0,0,0,0,
13.76416, 12:18:57.615,0,0,0,0,0,0,0,0,0,
13.80861, 12:18:57.659,0,0,0,0,0,0,0,0,0,
13.86228, 12:18:57.713,0,0,0,0,0,0,0,0,0,
13.90434, 12:18:57.755,0,0,0,0,0,0,0,0,0,
13.9415, 12:18:57.792,0,0,0,0,0,0,0,0,0,
13.98131, 12:18:57.833,0,0,0,0,0,0,0,0,0,
14.03662, 12:18:57.888,0,0,0,0,0,0,0,0,0,
14.08158, 12:18:57.940,0,0,0,0,0,0,0,0,0,
14.12868, 12:18:57.978,0,0,0,0,0,0,0,0,0,
14.1664, 12:18:58.018,0,0,0,0,0,0,0,0,0,
14.22175, 12:18:58.074,0,0,0,0,0,0,0,0,0,
14.26375, 12:18:58.114,0,0,0,0,0,0,0,0,0,
14.30309, 12:18:58.155,0,0,0,0,0,0,0,0,0,
14.34432, 12:18:58.195,0,0,0,0,0,0,0,0,0,
14.40254, 12:18:58.254,0,0,0,0,0,0,0,0,0,
14.44617, 12:18:58.297,0,0,0,0,0,0,0,0,0,
14.48388, 12:18:58.335,0,0,0,0,0,0,0,0,0,
14.52269, 12:18:58.373,0,0,0,0,0,0,0,0,0,
14.57641, 12:18:58.427,0,0,0,0,0,0,0,0,0,
14.61632, 12:18:58.467,0,0,0,0,0,0,0,0,0,
14.66132, 12:18:58.514,0,0,0,0,0,0,0,0,0,
14.70389, 12:18:58.555,0,0,0,0,0,0,0,0,0,
14.77336, 12:18:58.625,0,0,0,0,0,0,0,0,0,
14.81937, 12:18:58.669,0,0,0,0,0,0,0,0,0,
14.86254, 12:18:58.713,0,0,0,0,0,0,0,0,0,
14.91893, 12:18:58.768,0,0,0,0,0,0,0,0,0,
14.95755, 12:18:58.808,0,0,0,0,0,0,0,0,0,
14.99545, 12:18:58.845,0,0,0,0,0,0,0,0,0,
15.03237, 12:18:58.883,0,0,0,0,0,0,0,0,0,
15.08995, 12:18:58.943,0,0,0,0,0,0,0,0,0,
15.13717, 12:18:58.988,0,0,0,0,0,0,0,0,0,
15.17709, 12:18:59.027,0,0,0,0,0,0,0,0,0,
15.22063, 12:18:59.073,0,0,0,0,0,0,0,0,0,
15.2745, 12:18:59.124,0,0,0,0,0,0,0,0,0,
15.31743, 12:18:59.168,0,0,0,0,0,0,0,0,0,
15.35628, 12:18:59.206,0,0,0,0,0,0,0,0,0,
15.3931, 12:18:59.245,0,0,0,0,0,0,0,0,0,
15.44761, 12:18:59.299,0,0,0,0,0,0,0,0,0,
15.48824, 12:18:59.339,0,0,0,0,0,0,0,0,0,
15.52761, 12:18:59.377,0,0,0,0,0,0,0,0,0,
15.5646, 12:18:59.415,0,0,0,0,0,0,0,0,0,
15.62424, 12:18:59.475,0,0,0,0,0,0,0,0,0,
15.66597, 12:18:59.515,0,0,0,0,0,0,0,0,0,
15.70256, 12:18:59.552,0,0,0,0,0,0,0,0,0,
15.74268, 12:18:59.593,0,0,0,0,0,0,0,0,0,
15.80303, 12:18:59.656,0,0,0,0,0,0,0,0,0,
15.86638, 12:18:59.717,0,0,0,0,0,0,0,0,0,
15.91027, 12:18:59.769,0,0,0,0,0,0,0,0,0,
15.98348, 12:18:59.835,0,0,0,0,0,0,0,0,0,
16.02673, 12:18:59.877,0,0,0,0,0,0,0,0,0,
16.06532, 12:18:59.915,0,0,0,0,0,0,0,0,0,
16.12078, 12:18:59.971,0,0,0,0,0,0,0,0,0,
16.16508, 12:19:00.017,0,0,0,0,0,0,0,0,0,
16.20585, 12:19:00.056,0,0,0,0,0,0,0,0,0,
16.2442, 12:19:00.095,0,0,0,0,0,0,0,0,0,
16.30279, 12:19:00.155,0,0,0,0,0,0,0,0,0,
16.3468, 12:19:00.197,0,0,0,0,0,0,0,0,0,
16.39835, 12:19:00.249,0,0,0,0,0,0,0,0,0,
16.45551, 12:19:00.307,0,0,0,0,0,0,0,0,0,
16.50093, 12:19:00.353,0,0,0,0,0,0,0,0,0,
16.53908, 12:19:00.387,0,0,0,0,0,0,0,0,0,
16.57772, 12:19:00.427,0,0,0,0,0,0,0,0,0,
16.63787, 12:19:00.489,0,0,0,0,0,0,0,0,0,
16.68338, 12:19:00.534,0,0,0,0,0,0,0,0,0,
16.72664, 12:19:00.577,0,0,0,0,0,0,0,0,0,
16.76352, 12:19:00.614,0,0,0,0,0,0,0,0,0,
16.8254, 12:19:00.677,0,0,0,0,0,0,0,0,0,
16.86871, 12:19:00.719,0,0,0,0,0,0,0,0,0,
16.90748, 12:19:00.757,0,0,0,0,0,0,0,0,0,
16.94599, 12:19:00.796,0,0,0,0,0,0,0,0,0,
17.00067, 12:19:00.853,0,0,0,0,0,0,0,0,0,
17.04652, 12:19:00.898,0,0,0,0,0,0,0,0,0,
17.09646, 12:19:00.956,0,0,0,0,0,0,0,0,0,
17.16877, 12:19:01.022,0,0,0,0,0,0,0,0,0,
17.2196, 12:19:01.070,0,0,0,0,0,0,0,0,0,
17.25979, 12:19:01.111,0,0,0,0,0,0,0,0,0,
17.31841, 12:19:01.169,0,0,0,0,0,0,0,0,0,
17.35965, 12:19:01.209,0,0,0,0,0,0,0,0,0,
17.39498, 12:19:01.247,0,0,0,0,0,0,0,0,0,
17.45347, 12:19:01.305,0,0,0,0,0,0,0,0,0,
17.51108, 12:19:01.363,0,0,0,0,0,0,0,0,0,
17.56658, 12:19:01.419,0,0,0,0,0,0,0,0,0,
17.61037, 12:19:01.462,0,0,0,0,0,0,0,0,0,
17.66166, 12:19:01.512,0,0,0,0,0,0,0,0,0,
17.70393, 12:19:01.553,0,0,0,0,0,0,0,0,0,
17.7395, 12:19:01.588,0,0,0,0,0,0,0,0,0,
17.77948, 12:19:01.630,0,0,0,0,0,0,0,0,0,
17.82947, 12:19:01.681,0,0,0,0,0,0,0,0,0,
17.86914, 12:19:01.719,0,0,0,0,0,0,0,0,0,
17.91284, 12:19:01.764,0,0,0,0,0,0,0,0,0,
17.95075, 12:19:01.802,0,0,0,0,0,0,0,0,0,
18.0065, 12:19:01.858,0,0,0,0,0,0,0,0,0,
18.05356, 12:19:01.905,0,0,0,0,0,0,0,0,0,
18.09291, 12:19:01.943,0,0,0,0,0,0,0,0,0,
18.13696, 12:19:01.987,0,0,0,0,0,0,0,0,0,
18.18906, 12:19:02.040,0,0,0,0,0,0,0,0,0,
18.24809, 12:19:02.102,0,0,0,0,0,0,0,0,0,
18.29925, 12:19:02.150,0,0,0,0,0,0,0,0,0,
18.3671, 12:19:02.219,0,0,0,0,0,0,0,0,0,
18.41294, 12:19:02.263,0,0,0,0,0,0,0,0,0,
18.45404, 12:19:02.303,0,0,0,0,0,0,0,0,0,
18.50817, 12:19:02.358,0,0,0,0,0,0,0,0,0,
18.55286, 12:19:02.405,0,0,0,0,0,0,0,0,0,
18.59358, 12:19:02.445,0,0,0,0,0,0,0,0,0,
18.64403, 12:19:02.496,0,0,0,0,0,0,0,0,0,
18.7066, 12:19:02.558,0,0,0,0,0,0,0,0,0,
18.74612, 12:19:02.596,0,0,0,0,0,0,0,0,0,
18.78419, 12:19:02.635,0,0,0,0,0,0,0,0,0,
18.82121, 12:19:02.671,0,0,0,0,0,0,0,0,0,
18.8727, 12:19:02.723,0,0,0,0,0,0,0,0,0,
18.91417, 12:19:02.765,0,0,0,0,0,0,0,0,0,
18.95291, 12:19:02.803,0,0,0,0,0,0,0,0,0,
18.98979, 12:19:02.840,0,0,0,0,0,0,0,0,0,
19.05299, 12:19:02.906,0,0,0,0,0,0,0,0,0,
19.0983, 12:19:02.948,0,0,0,0,0,0,0,0,0,
19.14482, 12:19:02.997,0,0,0,0,0,0,0,0,0,
19.19702, 12:19:03.047,0,0,0,0,0,0,0,0,0,
19.24174, 12:19:03.093,0,0,0,0,0,0,0,0,0,
19.2827, 12:19:03.133,0,0,0,0,0,0,0,0,0,
19.32322, 12:19:03.173,0,0,0,0,0,0,0,0,0,
19.38716, 12:19:03.238,0,0,0,0,0,0,0,0,0,
19.44331, 12:19:03.295,0,0,0,0,0,0,0,0,0,
19.4907, 12:19:03.345,0,0,0,0,0,0,0,0,0,
19.54929, 12:19:03.402,0,0,0,0,0,0,0,0,0,
19.5952, 12:19:03.446,0,0,0,0,0,0,0,0,0,
19.64376, 12:19:03.497,0,0,0,0,0,0,0,0,0,
19.69611, 12:19:03.546,0,0,0,0,0,0,0,0,0,
19.73617, 12:19:03.585,0,0,0,0,0,0,0,0,0,
19.77236, 12:19:03.623,0,0,0,0,0,0,0,0,0,
19.81348, 12:19:03.665,0,0,0,0,0,0,0,0,0,
19.87211, 12:19:03.724,0,0,0,0,0,0,0,0,0,
19.91543, 12:19:03.765,0,0,0,0,0,0,0,0,0,
19.95535, 12:19:03.806,0,0,0,0,0,0,0,0,0,
19.99704, 12:19:03.848,0,0,0,0,0,0,0,0,0,
20.06589, 12:19:03.918,0,0,0,0,0,0,0,0,0,
20.10871, 12:19:03.959,0,0,0,0,0,0,0,0,0,
20.14574, 12:19:03.998,0,0,0,0,0,0,0,0,0,
20.18637, 12:19:04.036,0,0,0,0,0,0,0,0,0,
20.2438, 12:19:04.095,0,0,0,0,0,0,0,0,0,
20.28988, 12:19:04.139,0,0,0,0,0,0,0,0,0,
20.32932, 12:19:04.180,0,0,0,0,0,0,0,0,0,
20.36825, 12:19:04.218,0,0,0,0,0,0,0,0,0,
20.42271, 12:19:04.274,0,0,0,0,0,0,0,0,0,
20.46977, 12:19:04.321,0,0,0,0,0,0,0,0,0,
20.51216, 12:19:04.363,0,0,0,0,0,0,0,0,0,
20.55315, 12:19:04.405,0,0,0,0,0,0,0,0,0,
20.61974, 12:19:04.472,0,0,0,0,0,0,0,0,0,
20.68769, 12:19:04.539,0,0,0,0,0,0,0,0,0,
20.73015, 12:19:04.581,0,0,0,0,0,0,0,0,0,
20.78432, 12:19:04.636,0,0,0,0,0,0,0,0,0,
20.82819, 12:19:04.677,0,0,0,0,0,0,0,0,0,
20.86393, 12:19:04.713,0,0,0,0,0,0,0,0,0,
20.90077, 12:19:04.750,0,0,0,0,0,0,0,0,0,
20.95532, 12:19:04.805,0,0,0,0,0,0,0,0,0,
21.0018, 12:19:04.854,0,0,0,0,0,0,0,0,0,
21.04418, 12:19:04.895,0,0,0,0,0,0,0,0,0,
21.08543, 12:19:04.936,0,0,0,0,0,0,0,0,0,
21.14941, 12:19:05.001,0,0,0,0,0,0,0,0,0,
21.19267, 12:19:05.042,0,0,0,0,0,0,0,0,0,
21.22812, 12:19:05.079,0,0,0,0,0,0,0,0,0,
21.266, 12:19:05.116,0,0,0,0,0,0,0,0,0,
21.32238, 12:19:05.175,0,0,0,0,0,0,0,0,0,
21.36625, 12:19:05.217,0,0,0,0,0,0,0,0,0,
21.40701, 12:19:05.258,0,0,0,0,0,0,0,0,0,
21.44654, 12:19:05.296,0,0,0,0,0,0,0,0,0,
21.50203, 12:19:05.354,0,0,0,0,0,0,0,0,0,
21.54268, 12:19:05.393,0,0,0,0,0,0,0,0,0,
21.58216, 12:19:05.433,0,0,0,0,0,0,0,0,0,
21.62348, 12:19:05.474,0,0,0,0,0,0,0,0,0,
21.6791, 12:19:05.529,0,0,0,0,0,0,0,0,0,
21.72499, 12:19:05.582,0,0,0,0,0,0,0,0,0,
21.78458, 12:19:05.636,0,0,0,0,0,0,0,0,0,
21.85802, 12:19:05.712,0,0,0,0,0,0,0,0,0,
21.90411, 12:19:05.756,0,0,0,0,0,0,0,0,0,
21.94534, 12:19:05.797,0,0,0,0,0,0,0,0,0,
21.99677, 12:19:05.847,0,0,0,0,0,0,0,0,0,
22.04011, 12:19:05.890,0,0,0,0,0,0,0,0,0,
22.07936, 12:19:05.928,0,0,0,0,0,0,0,0,0,
22.1157, 12:19:05.966,0,0,0,0,0,0,0,0,0,
22.16601, 12:19:06.018,0,0,0,0,0,0,0,0,0,
22.2096, 12:19:06.059,0,0,0,0,0,0,0,0,0,
22.25387, 12:19:06.105,0,0,0,0,0,0,0,0,0,
22.29325, 12:19:06.144,0,0,0,0,0,0,0,0,0,
22.34945, 12:19:06.201,0,0,0,0,0,0,0,0,0,
22.39693, 12:19:06.248,0,0,0,0,0,0,0,0,0,
22.43669, 12:19:06.287,0,0,0,0,0,0,0,0,0,
22.47948, 12:19:06.330,0,0,0,0,0,0,0,0,0,
22.53912, 12:19:06.390,0,0,0,0,0,0,0,0,0,
22.58332, 12:19:06.435,0,0,0,0,0,0,0,0,0,
22.62982, 12:19:06.480,0,0,0,0,0,0,0,0,0,
22.6847, 12:19:06.536,0,0,0,0,0,0,0,0,0,
22.73495, 12:19:06.586,0,0,0,0,0,0,0,0,0,
22.77457, 12:19:06.625,0,0,0,0,0,0,0,0,0,
22.81151, 12:19:06.664,0,0,0,0,0,0,0,0,0,
22.86858, 12:19:06.719,0,0,0,0,0,0,0,0,0,
22.91064, 12:19:06.761,0,0,0,0,0,0,0,0,0,
22.95549, 12:19:06.807,0,0,0,0,0,0,0,0,0,
23.00418, 12:19:06.856,0,0,0,0,0,0,0,0,0,
23.0782, 12:19:06.930,0,0,0,0,0,0,0,0,0,
23.12091, 12:19:06.971,0,0,0,0,0,0,0,0,0,
23.16031, 12:19:07.010,0,0,0,0,0,0,0,0,0,
23.21934, 12:19:07.071,0,0,0,0,0,0,0,0,0,
23.25876, 12:19:07.109,0,0,0,0,0,0,0,0,0,
23.30892, 12:19:07.161,0,0,0,0,0,0,0,0,0,
23.3488, 12:19:07.198,0,0,0,0,0,0,0,0,0,
23.41209, 12:19:07.264,0,0,0,0,0,0,0,0,0,
23.45049, 12:19:07.301,0,0,0,0,0,0,0,0,0,
23.48953, 12:19:07.342,0,0,0,0,0,0,0,0,0,
23.52869, 12:19:07.380,0,0,0,0,0,0,0,0,0,
23.58179, 12:19:07.433,0,0,0,0,0,0,0,0,0,
23.62498, 12:19:07.475,0,0,0,0,0,0,0,0,0,
23.66453, 12:19:07.514,0,0,0,0,0,0,0,0,0,
23.69947, 12:19:07.549,0,0,0,0,0,0,0,0,0,
23.74945, 12:19:07.601,0,0,0,0,0,0,0,0,0,
23.79011, 12:19:07.641,0,0,0,0,0,0,0,0,0,
23.83034, 12:19:07.681,0,0,0,0,0,0,0,0,0,
23.87085, 12:19:07.721,0,0,0,0,0,0,0,0,0,
23.92311, 12:19:07.775,0,0,0,0,0,0,0,0,0,
23.96306, 12:19:07.813,0,0,0,0,0,0,0,0,0,
24.0031, 12:19:07.861,0,0,0,0,0,0,0,0,0,
24.06402, 12:19:07.915,0,0,0,0,0,0,0,0,0,
24.12394, 12:19:07.975,0,0,0,0,0,0,0,0,0,
24.17204, 12:19:08.033,0,0,0,0,0,0,0,0,0,
24.22674, 12:19:08.078,0,0,0,0,0,0,0,0,0,
24.285, 12:19:08.136,0,0,0,0,0,0,0,0,0,
24.32681, 12:19:08.177,0,0,0,0,0,0,0,0,0,
24.3679, 12:19:08.218,0,0,0,0,0,0,0,0,0,
24.40794, 12:19:08.260,0,0,0,0,0,0,0,0,0,
24.46976, 12:19:08.321,0,0,0,0,0,0,0,0,0,
24.51455, 12:19:08.364,0,0,0,0,0,0,0,0,0,
24.55945, 12:19:08.411,0,0,0,0,0,0,0,0,0,
24.6143, 12:19:08.465,0,0,0,0,0,0,0,0,0,
24.656, 12:19:08.507,0,0,0,0,0,0,0,0,0,
24.69302, 12:19:08.543,0,0,0,0,0,0,0,0,0,
24.73384, 12:19:08.585,0,0,0,0,0,0,0,0,0,
24.79107, 12:19:08.641,0,0,0,0,0,0,0,0,0,
24.83368, 12:19:08.683,0,0,0,0,0,0,0,0,0,
24.87207, 12:19:08.721,0,0,0,0,0,0,0,0,0,
24.90897, 12:19:08.759,0,0,0,0,0,0,0,0,0,
24.96946, 12:19:08.822,0,0,0,0,0,0,0,0,0,
25.01007, 12:19:08.863,0,0,0,0,0,0,0,0,0,
25.05307, 12:19:08.906,0,0,0,0,0,0,0,0,0,
25.09651, 12:19:08.947,0,0,0,0,0,0,0,0,0,
25.15524, 12:19:09.005,0,0,0,0,0,0,0,0,0,
25.20157, 12:19:09.053,0,0,0,0,0,0,0,0,0,
25.23947, 12:19:09.088,0,0,0,0,0,0,0,0,0,
25.27825, 12:19:09.130,0,0,0,0,0,0,0,0,0,
25.34422, 12:19:09.198,0,0,0,0,0,0,0,0,0,
25.39997, 12:19:09.250,0,0,0,0,0,0,0,0,0,
25.44262, 12:19:09.294,0,0,0,0,0,0,0,0,0,
25.4945, 12:19:09.345,0,0,0,0,0,0,0,0,0,
25.53268, 12:19:09.382,0,0,0,0,0,0,0,0,0,
25.57419, 12:19:09.424,0,0,0,0,0,0,0,0,0,
25.61098, 12:19:09.461,0,0,0,0,0,0,0,0,0,
25.67104, 12:19:09.522,0,0,0,0,0,0,0,0,0,
25.70905, 12:19:09.559,0,0,0,0,0,0,0,0,0,
25.74673, 12:19:09.597,0,0,0,0,0,0,0,0,0,
25.78466, 12:19:09.635,0,0,0,0,0,0,0,0,0,
25.83746, 12:19:09.687,0,0,0,0,0,0,0,0,0,
25.88995, 12:19:09.743,0,0,0,0,0,0,0,0,0,
25.93022, 12:19:09.782,0,0,0,0,0,0,0,0,0,
25.97735, 12:19:09.828,0,0,0,0,0,0,0,0,0,
26.03241, 12:19:09.884,0,0,0,0,0,0,0,0,0,
26.07646, 12:19:09.926,0,0,0,0,0,0,0,0,0,
26.12136, 12:19:09.973,0,0,0,0,0,0,0,0,0,
26.1612, 12:19:10.012,0,0,0,0,0,0,0,0,0,
26.21993, 12:19:10.072,0,0,0,0,0,0,0,0,0,
26.26371, 12:19:10.115,0,0,0,0,0,0,0,0,0,
26.30836, 12:19:10.160,0,0,0,0,0,0,0,0,0,
26.35368, 12:19:10.205,0,0,0,0,0,0,0,0,0,
26.41299, 12:19:10.264,0,0,0,0,0,0,0,0,0,
26.45476, 12:19:10.305,0,0,0,0,0,0,0,0,0,
26.49903, 12:19:10.350,0,0,0,0,0,0,0,0,0,
26.54666, 12:19:10.399,0,0,0,0,0,0,0,0,0,
26.6128, 12:19:10.465,0,0,0,0,0,0,0,0,0,
26.65557, 12:19:10.508,0,0,0,0,0,0,0,0,0,
26.70054, 12:19:10.552,0,0,0,0,0,0,0,0,0,
26.75319, 12:19:10.603,0,0,0,0,0,0,0,0,0,
26.80596, 12:19:10.658,0,0,0,0,0,0,0,0,0,
26.84461, 12:19:10.694,0,0,0,0,0,0,0,0,0,
26.88704, 12:19:10.738,0,0,0,0,0,0,0,0,0,
26.94134, 12:19:10.792,0,0,0,0,0,0,0,0,0,
26.97984, 12:19:10.830,0,0,0,0,0,0,0,0,0,
27.0204, 12:19:10.872,0,0,0,0,0,0,0,0,0,
27.06, 12:19:10.911,0,0,0,0,0,0,0,0,0,
27.11777, 12:19:10.969,0,0,0,0,0,0,0,0,0,
27.1595, 12:19:11.009,0,0,0,0,0,0,0,0,0,
27.20265, 12:19:11.053,0,0,0,0,0,0,0,0,0,
27.24508, 12:19:11.096,0,0,0,0,0,0,0,0,0,
27.30293, 12:19:11.154,0,0,0,0,0,0,0,0,0,
27.34451, 12:19:11.195,0,0,0,0,0,0,0,0,0,
27.37952, 12:19:11.229,0,0,0,0,0,0,0,0,0,
27.41899, 12:19:11.270,0,0,0,0,0,0,0,0,0,
27.48165, 12:19:11.333,0,0,0,0,0,0,0,0,0,
27.52521, 12:19:11.375,0,0,0,0,0,0,0,0,0,
27.5969, 12:19:11.449,0,0,0,0,0,0,0,0,0,
27.66444, 12:19:11.518,0,0,0,0,0,0,0,0,0,
27.71989, 12:19:11.572,0,0,0,0,0,0,0,0,0,
27.76302, 12:19:11.615,0,0,0,0,0,0,0,0,0,
27.81981, 12:19:11.671,0,0,0,0,0,0,0,0,0,
27.86066, 12:19:11.710,0,0,0,0,0,0,0,0,0,
27.90879, 12:19:11.760,0,0,0,0,0,0,0,0,0,
27.95039, 12:19:11.801,0,0,0,0,0,0,0,0,0,
28.01044, 12:19:11.862,0,0,0,0,0,0,0,0,0,
28.05071, 12:19:11.901,0,0,0,0,0,0,0,0,0,
28.08802, 12:19:11.939,0,0,0,0,0,0,0,0,0,
28.12488, 12:19:11.975,0,0,0,0,0,0,0,0,0,
28.17838, 12:19:12.029,0,0,0,0,0,0,0,0,0,
28.21676, 12:19:12.066,0,0,0,0,0,0,0,0,0,
28.25339, 12:19:12.104,0,0,0,0,0,0,0,0,0,
28.29037, 12:19:12.140,0,0,0,0,0,0,0,0,0,
28.34223, 12:19:12.193,0,0,0,0,0,0,0,0,0,
28.38456, 12:19:12.235,0,0,0,0,0,0,0,0,0,
28.42213, 12:19:12.272,0,0,0,0,0,0,0,0,0,
28.4594, 12:19:12.309,0,0,0,0,0,0,0,0,0,
28.51071, 12:19:12.363,0,0,0,0,0,0,0,0,0,
28.5511, 12:19:12.401,0,0,0,0,0,0,0,0,0,
28.59433, 12:19:12.451,0,0,0,0,0,0,0,0,0,
28.6428, 12:19:12.494,0,0,0,0,0,0,0,0,0,
28.6997, 12:19:12.550,0,0,0,0,0,0,0,0,0,
28.7426, 12:19:12.595,0,0,0,0,0,0,0,0,0,
28.78164, 12:19:12.632,0,0,0,0,0,0,0,0,0,
28.82433, 12:19:12.676,0,0,0,0,0,0,0,0,0,
28.88413, 12:19:12.737,0,0,0,0,0,0,0,0,0,
28.93877, 12:19:12.789,0,0,0,0,0,0,0,0,0,
28.97874, 12:19:12.828,0,0,0,0,0,0,0,0,0,
29.03282, 12:19:12.883,0,0,0,0,0,0,0,0,0,
29.08181, 12:19:12.935,0,0,0,0,0,0,0,0,0,
29.1208, 12:19:12.970,0,0,0,0,0,0,0,0,0,
29.16265, 12:19:13.012,0,0,0,0,0,0,0,0,0,
29.21616, 12:19:13.066,0,0,0,0,0,0,0,0,0,
29.25773, 12:19:13.107,0,0,0,0,0,0,0,0,0,
29.2952, 12:19:13.145,0,0,0,0,0,0,0,0,0,
29.33325, 12:19:13.184,0,0,0,0,0,0,0,0,0,
29.38977, 12:19:13.241,0,0,0,0,0,0,0,0,0,
29.4336, 12:19:13.284,0,0,0,0,0,0,0,0,0,
29.47044, 12:19:13.320,0,0,0,0,0,0,0,0,0,
29.53326, 12:19:13.385,0,0,0,0,0,0,0,0,0,
29.59496, 12:19:13.446,0,0,0,0,0,0,0,0,0,
29.64099, 12:19:13.492,0,0,0,0,0,0,0,0,0,
29.68089, 12:19:13.532,0,0,0,0,0,0,0,0,0,
29.7238, 12:19:13.573,0,0,0,0,0,0,0,0,0,
29.77799, 12:19:13.628,0,0,0,0,0,0,0,0,0,
29.82007, 12:19:13.672,0,0,0,0,0,0,0,0,0,
29.86148, 12:19:13.712,0,0,0,0,0,0,0,0,0,
29.8982, 12:19:13.748,0,0,0,0,0,0,0,0,0,
29.95234, 12:19:13.803,0,0,0,0,0,0,0,0,0,
29.99533, 12:19:13.845,0,0,0,0,0,0,0,0,0,
30.0409, 12:19:13.893,0,0,0,0,0,0,0,0,0,
30.10246, 12:19:13.953,0,0,0,0,0,0,0,0,0,
30.16478, 12:19:14.015,0,0,0,0,0,0,0,0,0,
30.20861, 12:19:14.060,0,0,0,0,0,0,0,0,0,
30.24871, 12:19:14.101,0,0,0,0,0,0,0,0,0,
30.28527, 12:19:14.136,0,0,0,0,0,0,0,0,0,
30.36183, 12:19:14.214,0,0,0,0,0,0,0,0,0,
30.41132, 12:19:14.265,0,0,0,0,0,0,0,0,0,
30.45281, 12:19:14.304,0,0,0,0,0,0,0,0,0,
30.51217, 12:19:14.365,0,0,0,0,0,0,0,0,0,
30.5556, 12:19:14.407,0,0,0,0,0,0,0,0,0,
30.59184, 12:19:14.443,0,0,0,0,0,0,0,0,0,
30.63359, 12:19:14.484,0,0,0,0,0,0,0,0,0,
30.68885, 12:19:14.542,0,0,0,0,0,0,0,0,0,
30.72993, 12:19:14.582,0,0,0,0,0,0,0,0,0,
30.76905, 12:19:14.620,0,0,0,0,0,0,0,0,0,
30.80945, 12:19:14.661,0,0,0,0,0,0,0,0,0,
30.87048, 12:19:14.722,0,0,0,0,0,0,0,0,0,
30.91193, 12:19:14.762,0,0,0,0,0,0,0,0,0,
30.9534, 12:19:14.803,0,0,0,0,0,0,0,0,0,
30.99309, 12:19:14.844,0,0,0,0,0,0,0,0,0,
31.05308, 12:19:14.905,0,0,0,0,0,0,0,0,0,
31.10043, 12:19:14.951,0,0,0,0,0,0,0,0,0,
31.13743, 12:19:14.986,0,0,0,0,0,0,0,0,0,
31.17661, 12:19:15.029,0,0,0,0,0,0,0,0,0,
31.23838, 12:19:15.092,0,0,0,0,0,0,0,0,0,
31.29726, 12:19:15.148,0,0,0,0,0,0,0,0,0,
31.34288, 12:19:15.194,0,0,0,0,0,0,0,0,0,
31.39528, 12:19:15.245,0,0,0,0,0,0,0,0,0,
31.43603, 12:19:15.286,0,0,0,0,0,0,0,0,0,
31.47201, 12:19:15.323,0,0,0,0,0,0,0,0,0,
31.51753, 12:19:15.368,0,0,0,0,0,0,0,0,0,
31.57654, 12:19:15.429,0,0,0,0,0,0,0,0,0,
31.62328, 12:19:15.475,0,0,0,0,0,0,0,0,0,
31.67029, 12:19:15.521,0,0,0,0,0,0,0,0,0,
31.73021, 12:19:15.581,0,0,0,0,0,0,0,0,0,
31.77006, 12:19:15.621,0,0,0,0,0,0,0,0,0,
31.80837, 12:19:15.659,0,0,0,0,0,0,0,0,0,
31.84539, 12:19:15.696,0,0,0,0,0,0,0,0,0,
31.89972, 12:19:15.750,0,0,0,0,0,0,0,0,0,
31.94122, 12:19:15.794,0,0,0,0,0,0,0,0,0,
31.98347, 12:19:15.834,0,0,0,0,0,0,0,0,0,
32.0195, 12:19:15.869,0,0,0,0,0,0,0,0,0,
32.07332, 12:19:15.924,0,0,0,0,0,0,0,0,0,
32.11877, 12:19:15.970,0,0,0,0,0,0,0,0,0,
32.15835, 12:19:16.008,0,0,0,0,0,0,0,0,0,
32.19712, 12:19:16.047,0,0,0,0,0,0,0,0,0,
32.25034, 12:19:16.102,0,0,0,0,0,0,0,0,0,
32.28986, 12:19:16.141,0,0,0,0,0,0,0,0,0,
32.3297, 12:19:16.180,0,0,0,0,0,0,0,0,0,
32.37965, 12:19:16.230,0,0,0,0,0,0,0,0,0,
32.45267, 12:19:16.304,0,0,0,0,0,0,0,0,0,
32.49441, 12:19:16.344,0,0,0,0,0,0,0,0,0,
32.53091, 12:19:16.381,0,0,0,0,0,0,0,0,0,
32.58173, 12:19:16.433,0,0,0,0,0,0,0,0,0,
32.62623, 12:19:16.477,0,0,0,0,0,0,0,0,0,
32.66395, 12:19:16.515,0,0,0,0,0,0,0,0,0,
32.70345, 12:19:16.554,0,0,0,0,0,0,0,0,0,
32.75652, 12:19:16.606,0,0,0,0,0,0,0,0,0,
32.79364, 12:19:16.644,0,0,0,0,0,0,0,0,0,
32.83498, 12:19:16.684,0,0,0,0,0,0,0,0,0,
32.87115, 12:19:16.721,0,0,0,0,0,0,0,0,0,
32.91949, 12:19:16.769,0,0,0,0,0,0,0,0,0,
32.97135, 12:19:16.822,0,0,0,0,0,0,0,0,0,
33.01052, 12:19:16.862,0,0,0,0,0,0,0,0,0,
33.0568, 12:19:16.907,0,0,0,0,0,0,0,0,0,
Elapsed_Time, System_Time, Euler_Roll, Euler_Pitch, Euler_Yaw, Gyro_Roll, Gyro_Pitch, Gyro_Yaw, Accel_x, Accel_y, Accel_z
0.02, 12:20:14.570,0,0,0,0,0,0,0,0,0,
0.04, 12:20:14.714,0,0,0,0,0,0,0,0,0,
0.3733333, 12:20:15.615,0,0,0,0,0,0,0,0,0,
0.5334299, 12:20:15.769,0,0,0,0,0,0,0,0,0,
0.6722862, 12:20:15.901,0,0,0,0,0,0,0,0,0,
0.840129, 12:20:16.072,0,0,0,0,0,0,0,0,0,
0.9355694, 12:20:16.160,0,0,0,0,0,0,0,0,0,
0.9949024, 12:20:16.220,0,0,0,0,0,0,0,0,0,
1.052212, 12:20:16.277,0,0,0,0,0,0,0,0,0,
1.102, 12:20:16.327,0,0,0,0,0,0,0,0,0,
1.144219, 12:20:16.368,0,0,0,0,0,0,0,0,0,
1.197098, 12:20:16.421,0,0,0,0,0,0,0,0,0,
1.249428, 12:20:16.474,0,0,0,0,0,0,0,0,0,
1.33341, 12:20:16.559,0,0,0,0,0,0,0,0,0,
1.44891, 12:20:16.676,0,0,0,0,0,0,0,0,0,
1.520244, 12:20:16.746,0,0,0,0,0,0,0,0,0,
1.567668, 12:20:16.791,0,0,0,0,0,0,0,0,0,
1.618924, 12:20:16.842,0,0,0,0,0,0,0,0,0,
1.669804, 12:20:16.895,0,0,0,0,0,0,0,0,0,
1.718524, 12:20:16.943,0,0,0,0,0,0,0,0,0,
1.755667, 12:20:16.981,0,0,0,0,0,0,0,0,0,
1.798499, 12:20:17.022,0,0,0,0,0,0,0,0,0,
1.857501, 12:20:17.082,0,0,0,0,0,0,0,0,0,
1.912727, 12:20:17.140,0,0,0,0,0,0,0,0,0,
1.962716, 12:20:17.189,0,0,0,0,0,0,0,0,0,
2.029076, 12:20:17.253,0,0,0,0,0,0,0,0,0,
2.166382, 12:20:17.394,0,0,0,0,0,0,0,0,0,
2.218075, 12:20:17.442,0,0,0,0,0,0,0,0,0,
2.257627, 12:20:17.555,0,0,0,0,0,0,0,0,0,
2.370856, 12:20:17.598,0,0,0,0,0,0,0,0,0,
2.472245, 12:20:17.700,0,0,0,0,0,0,0,0,0,
2.589619, 12:20:17.818,0,0,0,0,0,0,0,0,0,
2.645446, 12:20:17.871,0,0,0,0,0,0,0,0,0,
2.691069, 12:20:17.916,0,0,0,0,0,0,0,0,0,
2.734002, 12:20:17.958,0,0,0,0,0,0,0,0,0,
2.773079, 12:20:17.997,0,0,0,0,0,0,0,0,0,
2.824699, 12:20:18.049,0,0,0,0,0,0,0,0,0,
2.869242, 12:20:18.093,0,0,0,0,0,0,0,0,0,
2.906761, 12:20:18.132,0,0,0,0,0,0,0,0,0,
2.95562, 12:20:18.179,0,0,0,0,0,0,0,0,0,
3.0126, 12:20:18.237,0,0,0,0,0,0,0,0,0,
3.052441, 12:20:18.277,0,0,0,0,0,0,0,0,0,
3.097349, 12:20:18.321,0,0,0,0,0,0,0,0,0,
3.14383, 12:20:18.372,0,0,0,0,0,0,0,0,0,
3.360539, 12:20:18.593,0,0,0,0,0,0,0,0,0,
3.422293, 12:20:18.647,0,0,0,0,0,0,0,0,0,
3.468309, 12:20:18.693,0,0,0,0,0,0,0,0,0,
3.507011, 12:20:18.731,0,0,0,0,0,0,0,0,0,
3.547653, 12:20:18.772,0,0,0,0,0,0,0,0,0,
3.599802, 12:20:18.826,0,0,0,0,0,0,0,0,0,
3.644737, 12:20:18.869,0,0,0,0,0,0,0,0,0,
3.685907, 12:20:18.910,0,0,0,0,0,0,0,0,0,
3.750672, 12:20:18.976,0,0,0,0,0,0,0,0,0,
3.80388, 12:20:19.028,0,0,0,0,0,0,0,0,0,
3.850229, 12:20:19.075,0,0,0,0,0,0,0,0,0,
3.891201, 12:20:19.114,0,0,0,0,0,0,0,0,0,
3.930749, 12:20:19.154,0,0,0,0,0,0,0,0,0,
3.977819, 12:20:19.202,0,0,0,0,0,0,0,0,0,
4.022367, 12:20:19.247,0,0,0,0,0,0,0,0,0,
4.05957, 12:20:19.282,0,0,0,0,0,0,0,0,0,
4.098025, 12:20:19.322,0,0,0,0,0,0,0,0,0,
4.145857, 12:20:19.372,0,0,0,0,0,0,0,0,0,
4.188188, 12:20:19.412,0,0,0,0,0,0,0,0,0,
4.2282, 12:20:19.452,0,0,0,0,0,0,0,0,0,
4.271544, 12:20:19.497,0,0,0,0,0,0,0,0,0,
4.348142, 12:20:19.573,0,0,0,0,0,0,0,0,0,
4.405658, 12:20:19.632,0,0,0,0,0,0,0,0,0,
4.448701, 12:20:19.672,0,0,0,0,0,0,0,0,0,
4.504863, 12:20:19.729,0,0,0,0,0,0,0,0,0,
4.605021, 12:20:19.832,0,0,0,0,0,0,0,0,0,
4.663057, 12:20:19.888,0,0,0,0,0,0,0,0,0,
4.709311, 12:20:19.933,0,0,0,0,0,0,0,0,0,
4.754566, 12:20:19.979,0,0,0,0,0,0,0,0,0,
4.797453, 12:20:20.021,0,0,0,0,0,0,0,0,0,
4.852829, 12:20:20.078,0,0,0,0,0,0,0,0,0,
4.890126, 12:20:20.113,0,0,0,0,0,0,0,0,0,
4.93204, 12:20:20.156,0,0,0,0,0,0,0,0,0,
4.97482, 12:20:20.199,0,0,0,0,0,0,0,0,0,
5.029537, 12:20:20.254,0,0,0,0,0,0,0,0,0,
5.066496, 12:20:20.292,0,0,0,0,0,0,0,0,0,
5.108767, 12:20:20.332,0,0,0,0,0,0,0,0,0,
5.158586, 12:20:20.382,0,0,0,0,0,0,0,0,0,
5.210025, 12:20:20.435,0,0,0,0,0,0,0,0,0,
5.263287, 12:20:20.489,0,0,0,0,0,0,0,0,0,
5.31566, 12:20:20.541,0,0,0,0,0,0,0,0,0,
5.371422, 12:20:20.596,0,0,0,0,0,0,0,0,0,
5.410214, 12:20:20.634,0,0,0,0,0,0,0,0,0,
5.448739, 12:20:20.673,0,0,0,0,0,0,0,0,0,
5.496932, 12:20:20.721,0,0,0,0,0,0,0,0,0,
5.5708, 12:20:20.796,0,0,0,0,0,0,0,0,0,
5.618563, 12:20:20.844,0,0,0,0,0,0,0,0,0,
5.662612, 12:20:20.888,0,0,0,0,0,0,0,0,0,
5.720408, 12:20:20.944,0,0,0,0,0,0,0,0,0,
5.759416, 12:20:20.982,0,0,0,0,0,0,0,0,0,
5.795692, 12:20:21.018,0,0,0,0,0,0,0,0,0,
5.844304, 12:20:21.069,0,0,0,0,0,0,0,0,0,
5.896401, 12:20:21.121,0,0,0,0,0,0,0,0,0,
5.936639, 12:20:21.162,0,0,0,0,0,0,0,0,0,
5.978855, 12:20:21.203,0,0,0,0,0,0,0,0,0,
6.022547, 12:20:21.247,0,0,0,0,0,0,0,0,0,
6.080323, 12:20:21.305,0,0,0,0,0,0,0,0,0,
6.127435, 12:20:21.352,0,0,0,0,0,0,0,0,0,
6.16559, 12:20:21.390,0,0,0,0,0,0,0,0,0,
6.214805, 12:20:21.438,0,0,0,0,0,0,0,0,0,
6.266191, 12:20:21.491,0,0,0,0,0,0,0,0,0,
6.311302, 12:20:21.536,0,0,0,0,0,0,0,0,0,
6.349904, 12:20:21.579,0,0,0,0,0,0,0,0,0,
6.395205, 12:20:21.620,0,0,0,0,0,0,0,0,0,
6.44952, 12:20:21.674,0,0,0,0,0,0,0,0,0,
6.488399, 12:20:21.711,0,0,0,0,0,0,0,0,0,
6.531805, 12:20:21.755,0,0,0,0,0,0,0,0,0,
6.574448, 12:20:21.798,0,0,0,0,0,0,0,0,0,
6.623003, 12:20:21.847,0,0,0,0,0,0,0,0,0,
6.68109, 12:20:21.906,0,0,0,0,0,0,0,0,0,
6.743321, 12:20:21.970,0,0,0,0,0,0,0,0,0,
6.917803, 12:20:22.149,0,0,0,0,0,0,0,0,0,
6.975028, 12:20:22.200,0,0,0,0,0,0,0,0,0,
7.02224, 12:20:22.247,0,0,0,0,0,0,0,0,0,
7.064811, 12:20:22.288,0,0,0,0,0,0,0,0,0,
7.107218, 12:20:22.331,0,0,0,0,0,0,0,0,0,
7.158816, 12:20:22.384,0,0,0,0,0,0,0,0,0,
7.205315, 12:20:22.430,0,0,0,0,0,0,0,0,0,
7.244892, 12:20:22.469,0,0,0,0,0,0,0,0,0,
7.295327, 12:20:22.519,0,0,0,0,0,0,0,0,0,
7.348418, 12:20:22.573,0,0,0,0,0,0,0,0,0,
7.391968, 12:20:22.616,0,0,0,0,0,0,0,0,0,
7.430535, 12:20:22.654,0,0,0,0,0,0,0,0,0,
7.47422, 12:20:22.698,0,0,0,0,0,0,0,0,0,
7.532349, 12:20:22.757,0,0,0,0,0,0,0,0,0,
7.574603, 12:20:22.799,0,0,0,0,0,0,0,0,0,
7.619357, 12:20:22.843,0,0,0,0,0,0,0,0,0,
7.657113, 12:20:22.881,0,0,0,0,0,0,0,0,0,
7.712318, 12:20:22.937,0,0,0,0,0,0,0,0,0,
7.75165, 12:20:22.977,0,0,0,0,0,0,0,0,0,
7.790287, 12:20:23.014,0,0,0,0,0,0,0,0,0,
7.834126, 12:20:23.060,0,0,0,0,0,0,0,0,0,
7.898105, 12:20:23.122,0,0,0,0,0,0,0,0,0,
7.961679, 12:20:23.187,0,0,0,0,0,0,0,0,0,
8.001669, 12:20:23.228,0,0,0,0,0,0,0,0,0,
8.054995, 12:20:23.279,0,0,0,0,0,0,0,0,0,
8.098944, 12:20:23.322,0,0,0,0,0,0,0,0,0,
8.139808, 12:20:23.364,0,0,0,0,0,0,0,0,0,
8.180041, 12:20:23.404,0,0,0,0,0,0,0,0,0,
8.231612, 12:20:23.455,0,0,0,0,0,0,0,0,0,
8.272545, 12:20:23.498,0,0,0,0,0,0,0,0,0,
8.316202, 12:20:23.539,0,0,0,0,0,0,0,0,0,
8.354985, 12:20:23.579,0,0,0,0,0,0,0,0,0,
8.407457, 12:20:23.632,0,0,0,0,0,0,0,0,0,
8.453314, 12:20:23.676,0,0,0,0,0,0,0,0,0,
8.489744, 12:20:23.712,0,0,0,0,0,0,0,0,0,
8.528357, 12:20:23.751,0,0,0,0,0,0,0,0,0,
8.578066, 12:20:23.802,0,0,0,0,0,0,0,0,0,
8.620317, 12:20:23.844,0,0,0,0,0,0,0,0,0,
8.657924, 12:20:23.881,0,0,0,0,0,0,0,0,0,
8.701589, 12:20:23.926,0,0,0,0,0,0,0,0,0,
8.75153, 12:20:23.976,0,0,0,0,0,0,0,0,0,
8.79382, 12:20:24.018,0,0,0,0,0,0,0,0,0,
8.832951, 12:20:24.058,0,0,0,0,0,0,0,0,0,
8.87948, 12:20:24.103,0,0,0,0,0,0,0,0,0,
8.930995, 12:20:24.156,0,0,0,0,0,0,0,0,0,
8.973246, 12:20:24.197,0,0,0,0,0,0,0,0,0,
9.018554, 12:20:24.243,0,0,0,0,0,0,0,0,0,
9.063022, 12:20:24.288,0,0,0,0,0,0,0,0,0,
9.129579, 12:20:24.354,0,0,0,0,0,0,0,0,0,
9.173866, 12:20:24.398,0,0,0,0,0,0,0,0,0,
9.215941, 12:20:24.439,0,0,0,0,0,0,0,0,0,
9.265088, 12:20:24.489,0,0,0,0,0,0,0,0,0,
9.30631, 12:20:24.530,0,0,0,0,0,0,0,0,0,
9.345647, 12:20:24.569,0,0,0,0,0,0,0,0,0,
9.382481, 12:20:24.606,0,0,0,0,0,0,0,0,0,
9.438673, 12:20:24.664,0,0,0,0,0,0,0,0,0,
9.479125, 12:20:24.703,0,0,0,0,0,0,0,0,0,
9.517042, 12:20:24.741,0,0,0,0,0,0,0,0,0,
9.555715, 12:20:24.779,0,0,0,0,0,0,0,0,0,
9.608653, 12:20:24.833,0,0,0,0,0,0,0,0,0,
9.657022, 12:20:24.880,0,0,0,0,0,0,0,0,0,
9.728108, 12:20:24.954,0,0,0,0,0,0,0,0,0,
9.782505, 12:20:25.007,0,0,0,0,0,0,0,0,0,
9.825494, 12:20:25.049,0,0,0,0,0,0,0,0,0,
9.86689, 12:20:25.091,0,0,0,0,0,0,0,0,0,
9.906348, 12:20:25.130,0,0,0,0,0,0,0,0,0,
9.960746, 12:20:25.186,0,0,0,0,0,0,0,0,0,
10.00467, 12:20:25.230,0,0,0,0,0,0,0,0,0,
10.04579, 12:20:25.270,0,0,0,0,0,0,0,0,0,
10.09071, 12:20:25.314,0,0,0,0,0,0,0,0,0,
10.14343, 12:20:25.367,0,0,0,0,0,0,0,0,0,
10.1874, 12:20:25.412,0,0,0,0,0,0,0,0,0,
10.23874, 12:20:25.464,0,0,0,0,0,0,0,0,0,
10.29847, 12:20:25.525,0,0,0,0,0,0,0,0,0,
10.38511, 12:20:25.611,0,0,0,0,0,0,0,0,0,
10.4322, 12:20:25.657,0,0,0,0,0,0,0,0,0,
10.47216, 12:20:25.696,0,0,0,0,0,0,0,0,0,
10.52833, 12:20:25.753,0,0,0,0,0,0,0,0,0,
10.57121, 12:20:25.795,0,0,0,0,0,0,0,0,0,
10.61274, 12:20:25.837,0,0,0,0,0,0,0,0,0,
10.64798, 12:20:25.872,0,0,0,0,0,0,0,0,0,
10.70728, 12:20:25.932,0,0,0,0,0,0,0,0,0,
10.74556, 12:20:25.970,0,0,0,0,0,0,0,0,0,
10.78662, 12:20:26.011,0,0,0,0,0,0,0,0,0,
10.82881, 12:20:26.054,0,0,0,0,0,0,0,0,0,
10.88079, 12:20:26.106,0,0,0,0,0,0,0,0,0,
10.92764, 12:20:26.154,0,0,0,0,0,0,0,0,0,
10.96544, 12:20:26.188,0,0,0,0,0,0,0,0,0,
11.00292, 12:20:26.227,0,0,0,0,0,0,0,0,0,
11.0579, 12:20:26.281,0,0,0,0,0,0,0,0,0,
11.1009, 12:20:26.326,0,0,0,0,0,0,0,0,0,
11.14359, 12:20:26.367,0,0,0,0,0,0,0,0,0,
11.18096, 12:20:26.405,0,0,0,0,0,0,0,0,0,
11.23705, 12:20:26.461,0,0,0,0,0,0,0,0,0,
11.28642, 12:20:26.511,0,0,0,0,0,0,0,0,0,
11.32472, 12:20:26.548,0,0,0,0,0,0,0,0,0,
11.36322, 12:20:26.587,0,0,0,0,0,0,0,0,0,
11.42564, 12:20:26.651,0,0,0,0,0,0,0,0,0,
11.49571, 12:20:26.720,0,0,0,0,0,0,0,0,0,
11.53779, 12:20:26.762,0,0,0,0,0,0,0,0,0,
11.58959, 12:20:26.814,0,0,0,0,0,0,0,0,0,
11.63179, 12:20:26.856,0,0,0,0,0,0,0,0,0,
11.67206, 12:20:26.896,0,0,0,0,0,0,0,0,0,
11.70932, 12:20:26.932,0,0,0,0,0,0,0,0,0,
11.75844, 12:20:26.981,0,0,0,0,0,0,0,0,0,
11.80004, 12:20:27.024,0,0,0,0,0,0,0,0,0,
11.84023, 12:20:27.064,0,0,0,0,0,0,0,0,0,
11.88304, 12:20:27.106,0,0,0,0,0,0,0,0,0,
11.9337, 12:20:27.158,0,0,0,0,0,0,0,0,0,
11.97607, 12:20:27.199,0,0,0,0,0,0,0,0,0,
12.01109, 12:20:27.235,0,0,0,0,0,0,0,0,0,
12.05147, 12:20:27.280,0,0,0,0,0,0,0,0,0,
12.10937, 12:20:27.334,0,0,0,0,0,0,0,0,0,
12.15154, 12:20:27.375,0,0,0,0,0,0,0,0,0,
12.18864, 12:20:27.414,0,0,0,0,0,0,0,0,0,
12.22912, 12:20:27.452,0,0,0,0,0,0,0,0,0,
12.28489, 12:20:27.509,0,0,0,0,0,0,0,0,0,
12.32826, 12:20:27.552,0,0,0,0,0,0,0,0,0,
12.36543, 12:20:27.588,0,0,0,0,0,0,0,0,0,
12.40277, 12:20:27.626,0,0,0,0,0,0,0,0,0,
12.45477, 12:20:27.678,0,0,0,0,0,0,0,0,0,
12.49555, 12:20:27.719,0,0,0,0,0,0,0,0,0,
12.53564, 12:20:27.759,0,0,0,0,0,0,0,0,0,
12.57824, 12:20:27.802,0,0,0,0,0,0,0,0,0,
12.64855, 12:20:27.874,0,0,0,0,0,0,0,0,0,
12.69804, 12:20:27.921,0,0,0,0,0,0,0,0,0,
12.74024, 12:20:27.965,0,0,0,0,0,0,0,0,0,
12.79202, 12:20:28.017,0,0,0,0,0,0,0,0,0,
12.83974, 12:20:28.063,0,0,0,0,0,0,0,0,0,
12.87914, 12:20:28.105,0,0,0,0,0,0,0,0,0,
12.91572, 12:20:28.138,0,0,0,0,0,0,0,0,0,
12.97122, 12:20:28.195,0,0,0,0,0,0,0,0,0,
13.01123, 12:20:28.236,0,0,0,0,0,0,0,0,0,
13.05179, 12:20:28.275,0,0,0,0,0,0,0,0,0,
13.08849, 12:20:28.312,0,0,0,0,0,0,0,0,0,
13.14492, 12:20:28.369,0,0,0,0,0,0,0,0,0,
13.18919, 12:20:28.413,0,0,0,0,0,0,0,0,0,
13.22896, 12:20:28.453,0,0,0,0,0,0,0,0,0,
13.27051, 12:20:28.495,0,0,0,0,0,0,0,0,0,
13.32781, 12:20:28.552,0,0,0,0,0,0,0,0,0,
13.37213, 12:20:28.596,0,0,0,0,0,0,0,0,0,
13.41398, 12:20:28.637,0,0,0,0,0,0,0,0,0,
13.45213, 12:20:28.676,0,0,0,0,0,0,0,0,0,
13.50605, 12:20:28.730,0,0,0,0,0,0,0,0,0,
13.55075, 12:20:28.775,0,0,0,0,0,0,0,0,0,
13.59304, 12:20:28.817,0,0,0,0,0,0,0,0,0,
13.64161, 12:20:28.867,0,0,0,0,0,0,0,0,0,
13.69577, 12:20:28.919,0,0,0,0,0,0,0,0,0,
13.74203, 12:20:28.967,0,0,0,0,0,0,0,0,0,
13.78934, 12:20:29.029,0,0,0,0,0,0,0,0,0,
13.84868, 12:20:29.074,0,0,0,0,0,0,0,0,0,
13.9045, 12:20:29.129,0,0,0,0,0,0,0,0,0,
13.94598, 12:20:29.170,0,0,0,0,0,0,0,0,0,
13.98405, 12:20:29.207,0,0,0,0,0,0,0,0,0,
14.02071, 12:20:29.244,0,0,0,0,0,0,0,0,0,
14.07476, 12:20:29.298,0,0,0,0,0,0,0,0,0,
14.11882, 12:20:29.342,0,0,0,0,0,0,0,0,0,
14.15484, 12:20:29.378,0,0,0,0,0,0,0,0,0,
14.19192, 12:20:29.416,0,0,0,0,0,0,0,0,0,
14.24349, 12:20:29.468,0,0,0,0,0,0,0,0,0,
14.28707, 12:20:29.510,0,0,0,0,0,0,0,0,0,
14.32862, 12:20:29.553,0,0,0,0,0,0,0,0,0,
14.36877, 12:20:29.593,0,0,0,0,0,0,0,0,0,
14.42854, 12:20:29.655,0,0,0,0,0,0,0,0,0,
14.47158, 12:20:29.696,0,0,0,0,0,0,0,0,0,
14.50958, 12:20:29.733,0,0,0,0,0,0,0,0,0,
14.55203, 12:20:29.776,0,0,0,0,0,0,0,0,0,
14.60474, 12:20:29.830,0,0,0,0,0,0,0,0,0,
14.64996, 12:20:29.874,0,0,0,0,0,0,0,0,0,
14.69091, 12:20:29.915,0,0,0,0,0,0,0,0,0,
14.73012, 12:20:29.954,0,0,0,0,0,0,0,0,0,
14.78759, 12:20:30.012,0,0,0,0,0,0,0,0,0,
14.83298, 12:20:30.056,0,0,0,0,0,0,0,0,0,
14.87261, 12:20:30.097,0,0,0,0,0,0,0,0,0,
14.93817, 12:20:30.163,0,0,0,0,0,0,0,0,0,
15.00917, 12:20:30.236,0,0,0,0,0,0,0,0,0,
15.05759, 12:20:30.281,0,0,0,0,0,0,0,0,0,
15.09629, 12:20:30.320,0,0,0,0,0,0,0,0,0,
15.14854, 12:20:30.373,0,0,0,0,0,0,0,0,0,
15.19379, 12:20:30.418,0,0,0,0,0,0,0,0,0,
15.23812, 12:20:30.462,0,0,0,0,0,0,0,0,0,
15.27987, 12:20:30.505,0,0,0,0,0,0,0,0,0,
15.33358, 12:20:30.559,0,0,0,0,0,0,0,0,0,
15.37578, 12:20:30.599,0,0,0,0,0,0,0,0,0,
15.4188, 12:20:30.643,0,0,0,0,0,0,0,0,0,
15.45696, 12:20:30.681,0,0,0,0,0,0,0,0,0,
15.51092, 12:20:30.736,0,0,0,0,0,0,0,0,0,
15.55661, 12:20:30.782,0,0,0,0,0,0,0,0,0,
15.59448, 12:20:30.819,0,0,0,0,0,0,0,0,0,
15.63523, 12:20:30.860,0,0,0,0,0,0,0,0,0,
15.68958, 12:20:30.915,0,0,0,0,0,0,0,0,0,
15.73472, 12:20:30.958,0,0,0,0,0,0,0,0,0,
15.7719, 12:20:30.997,0,0,0,0,0,0,0,0,0,
15.81462, 12:20:31.037,0,0,0,0,0,0,0,0,0,
15.86877, 12:20:31.094,0,0,0,0,0,0,0,0,0,
15.91079, 12:20:31.135,0,0,0,0,0,0,0,0,0,
15.9483, 12:20:31.173,0,0,0,0,0,0,0,0,0,
15.98856, 12:20:31.213,0,0,0,0,0,0,0,0,0,
16.04867, 12:20:31.274,0,0,0,0,0,0,0,0,0,
16.09289, 12:20:31.318,0,0,0,0,0,0,0,0,0,
16.14362, 12:20:31.369,0,0,0,0,0,0,0,0,0,
16.21379, 12:20:31.438,0,0,0,0,0,0,0,0,0,
16.25757, 12:20:31.481,0,0,0,0,0,0,0,0,0,
16.30083, 12:20:31.525,0,0,0,0,0,0,0,0,0,
16.35214, 12:20:31.578,0,0,0,0,0,0,0,0,0,
16.39259, 12:20:31.616,0,0,0,0,0,0,0,0,0,
16.4306, 12:20:31.656,0,0,0,0,0,0,0,0,0,
16.47204, 12:20:31.697,0,0,0,0,0,0,0,0,0,
16.53016, 12:20:31.754,0,0,0,0,0,0,0,0,0,
16.57545, 12:20:31.799,0,0,0,0,0,0,0,0,0,
16.61528, 12:20:31.839,0,0,0,0,0,0,0,0,0,
16.65429, 12:20:31.878,0,0,0,0,0,0,0,0,0,
16.70656, 12:20:31.931,0,0,0,0,0,0,0,0,0,
16.7517, 12:20:31.975,0,0,0,0,0,0,0,0,0,
16.79001, 12:20:32.014,0,0,0,0,0,0,0,0,0,
16.83341, 12:20:32.056,0,0,0,0,0,0,0,0,0,
16.88712, 12:20:32.112,0,0,0,0,0,0,0,0,0,
16.92846, 12:20:32.153,0,0,0,0,0,0,0,0,0,
16.97169, 12:20:32.196,0,0,0,0,0,0,0,0,0,
17.00871, 12:20:32.233,0,0,0,0,0,0,0,0,0,
17.05978, 12:20:32.284,0,0,0,0,0,0,0,0,0,
17.09858, 12:20:32.324,0,0,0,0,0,0,0,0,0,
17.1401, 12:20:32.365,0,0,0,0,0,0,0,0,0,
17.18003, 12:20:32.403,0,0,0,0,0,0,0,0,0,
17.23488, 12:20:32.458,0,0,0,0,0,0,0,0,0,
17.27832, 12:20:32.504,0,0,0,0,0,0,0,0,0,
17.32451, 12:20:32.555,0,0,0,0,0,0,0,0,0,
17.38756, 12:20:32.612,0,0,0,0,0,0,0,0,0,
17.44787, 12:20:32.673,0,0,0,0,0,0,0,0,0,
17.49166, 12:20:32.715,0,0,0,0,0,0,0,0,0,
17.52882, 12:20:32.753,0,0,0,0,0,0,0,0,0,
17.56999, 12:20:32.793,0,0,0,0,0,0,0,0,0,
17.62733, 12:20:32.852,0,0,0,0,0,0,0,0,0,
17.67311, 12:20:32.896,0,0,0,0,0,0,0,0,0,
17.7105, 12:20:32.935,0,0,0,0,0,0,0,0,0,
17.75078, 12:20:32.974,0,0,0,0,0,0,0,0,0,
17.80024, 12:20:33.026,0,0,0,0,0,0,0,0,0,
17.84222, 12:20:33.066,0,0,0,0,0,0,0,0,0,
17.88482, 12:20:33.109,0,0,0,0,0,0,0,0,0,
17.92317, 12:20:33.146,0,0,0,0,0,0,0,0,0,
17.97677, 12:20:33.200,0,0,0,0,0,0,0,0,0,
18.01838, 12:20:33.242,0,0,0,0,0,0,0,0,0,
18.0588, 12:20:33.283,0,0,0,0,0,0,0,0,0,
18.10262, 12:20:33.327,0,0,0,0,0,0,0,0,0,
18.15757, 12:20:33.381,0,0,0,0,0,0,0,0,0,
18.20002, 12:20:33.426,0,0,0,0,0,0,0,0,0,
18.24072, 12:20:33.465,0,0,0,0,0,0,0,0,0,
18.27976, 12:20:33.504,0,0,0,0,0,0,0,0,0,
18.33661, 12:20:33.561,0,0,0,0,0,0,0,0,0,
18.38673, 12:20:33.611,0,0,0,0,0,0,0,0,0,
18.42784, 12:20:33.651,0,0,0,0,0,0,0,0,0,
18.46923, 12:20:33.694,0,0,0,0,0,0,0,0,0,
18.53291, 12:20:33.759,0,0,0,0,0,0,0,0,0,
18.58514, 12:20:33.809,0,0,0,0,0,0,0,0,0,
18.62743, 12:20:33.851,0,0,0,0,0,0,0,0,0,
18.6775, 12:20:33.902,0,0,0,0,0,0,0,0,0,
18.72109, 12:20:33.945,0,0,0,0,0,0,0,0,0,
18.75821, 12:20:33.981,0,0,0,0,0,0,0,0,0,
18.79967, 12:20:34.023,0,0,0,0,0,0,0,0,0,
18.84712, 12:20:34.072,0,0,0,0,0,0,0,0,0,
18.90179, 12:20:34.126,0,0,0,0,0,0,0,0,0,
18.93921, 12:20:34.162,0,0,0,0,0,0,0,0,0,
18.97491, 12:20:34.199,0,0,0,0,0,0,0,0,0,
19.03104, 12:20:34.257,0,0,0,0,0,0,0,0,0,
19.07359, 12:20:34.299,0,0,0,0,0,0,0,0,0,
19.11074, 12:20:34.336,0,0,0,0,0,0,0,0,0,
19.15013, 12:20:34.375,0,0,0,0,0,0,0,0,0,
19.2087, 12:20:34.434,0,0,0,0,0,0,0,0,0,
19.25591, 12:20:34.479,0,0,0,0,0,0,0,0,0,
19.29173, 12:20:34.516,0,0,0,0,0,0,0,0,0,
19.33234, 12:20:34.556,0,0,0,0,0,0,0,0,0,
19.38353, 12:20:34.608,0,0,0,0,0,0,0,0,0,
19.42391, 12:20:34.647,0,0,0,0,0,0,0,0,0,
19.46383, 12:20:34.687,0,0,0,0,0,0,0,0,0,
19.50316, 12:20:34.726,0,0,0,0,0,0,0,0,0,
19.55838, 12:20:34.782,0,0,0,0,0,0,0,0,0,
19.59734, 12:20:34.821,0,0,0,0,0,0,0,0,0,
19.64041, 12:20:34.867,0,0,0,0,0,0,0,0,0,
19.69079, 12:20:34.916,0,0,0,0,0,0,0,0,0,
19.75556, 12:20:34.980,0,0,0,0,0,0,0,0,0,
19.79985, 12:20:35.023,0,0,0,0,0,0,0,0,0,
19.83796, 12:20:35.061,0,0,0,0,0,0,0,0,0,
19.87638, 12:20:35.100,0,0,0,0,0,0,0,0,0,
19.93315, 12:20:35.163,0,0,0,0,0,0,0,0,0,
19.98114, 12:20:35.206,0,0,0,0,0,0,0,0,0,
20.0212, 12:20:35.245,0,0,0,0,0,0,0,0,0,
20.0596, 12:20:35.282,0,0,0,0,0,0,0,0,0,
20.10998, 12:20:35.337,0,0,0,0,0,0,0,0,0,
20.15753, 12:20:35.381,0,0,0,0,0,0,0,0,0,
20.19763, 12:20:35.423,0,0,0,0,0,0,0,0,0,
20.23732, 12:20:35.464,0,0,0,0,0,0,0,0,0,
20.29462, 12:20:35.521,0,0,0,0,0,0,0,0,0,
20.3405, 12:20:35.565,0,0,0,0,0,0,0,0,0,
20.38174, 12:20:35.604,0,0,0,0,0,0,0,0,0,
20.41956, 12:20:35.642,0,0,0,0,0,0,0,0,0,
20.46806, 12:20:35.692,0,0,0,0,0,0,0,0,0,
20.51019, 12:20:35.735,0,0,0,0,0,0,0,0,0,
20.5496, 12:20:35.773,0,0,0,0,0,0,0,0,0,
20.59055, 12:20:35.814,0,0,0,0,0,0,0,0,0,
20.66626, 12:20:35.892,0,0,0,0,0,0,0,0,0,
20.70941, 12:20:35.934,0,0,0,0,0,0,0,0,0,
20.75087, 12:20:35.975,0,0,0,0,0,0,0,0,0,
20.80752, 12:20:36.033,0,0,0,0,0,0,0,0,0,
20.85943, 12:20:36.085,0,0,0,0,0,0,0,0,0,
20.90768, 12:20:36.132,0,0,0,0,0,0,0,0,0,
20.96377, 12:20:36.189,0,0,0,0,0,0,0,0,0,
21.00888, 12:20:36.233,0,0,0,0,0,0,0,0,0,
21.04732, 12:20:36.271,0,0,0,0,0,0,0,0,0,
21.08762, 12:20:36.312,0,0,0,0,0,0,0,0,0,
21.13975, 12:20:36.363,0,0,0,0,0,0,0,0,0,
21.18038, 12:20:36.404,0,0,0,0,0,0,0,0,0,
21.22161, 12:20:36.445,0,0,0,0,0,0,0,0,0,
21.26101, 12:20:36.485,0,0,0,0,0,0,0,0,0,
21.31501, 12:20:36.540,0,0,0,0,0,0,0,0,0,
21.35519, 12:20:36.578,0,0,0,0,0,0,0,0,0,
21.39242, 12:20:36.616,0,0,0,0,0,0,0,0,0,
21.43704, 12:20:36.661,0,0,0,0,0,0,0,0,0,
21.49374, 12:20:36.718,0,0,0,0,0,0,0,0,0,
21.53684, 12:20:36.762,0,0,0,0,0,0,0,0,0,
21.58014, 12:20:36.805,0,0,0,0,0,0,0,0,0,
21.65137, 12:20:36.877,0,0,0,0,0,0,0,0,0,
21.70708, 12:20:36.933,0,0,0,0,0,0,0,0,0,
21.75267, 12:20:36.977,0,0,0,0,0,0,0,0,0,
21.78984, 12:20:37.015,0,0,0,0,0,0,0,0,0,
21.82951, 12:20:37.053,0,0,0,0,0,0,0,0,0,
21.88695, 12:20:37.111,0,0,0,0,0,0,0,0,0,
21.93282, 12:20:37.157,0,0,0,0,0,0,0,0,0,
21.97371, 12:20:37.198,0,0,0,0,0,0,0,0,0,
22.01981, 12:20:37.245,0,0,0,0,0,0,0,0,0,
22.08981, 12:20:37.315,0,0,0,0,0,0,0,0,0,
22.13619, 12:20:37.359,0,0,0,0,0,0,0,0,0,
22.17174, 12:20:37.395,0,0,0,0,0,0,0,0,0,
22.22134, 12:20:37.446,0,0,0,0,0,0,0,0,0,
22.26374, 12:20:37.487,0,0,0,0,0,0,0,0,0,
22.30262, 12:20:37.525,0,0,0,0,0,0,0,0,0,
22.35124, 12:20:37.575,0,0,0,0,0,0,0,0,0,
22.40579, 12:20:37.631,0,0,0,0,0,0,0,0,0,
22.44735, 12:20:37.672,0,0,0,0,0,0,0,0,0,
22.48761, 12:20:37.711,0,0,0,0,0,0,0,0,0,
22.5235, 12:20:37.747,0,0,0,0,0,0,0,0,0,
22.5951, 12:20:37.819,0,0,0,0,0,0,0,0,0,
22.63677, 12:20:37.862,0,0,0,0,0,0,0,0,0,
22.67859, 12:20:37.902,0,0,0,0,0,0,0,0,0,
22.73401, 12:20:37.959,0,0,0,0,0,0,0,0,0,
22.77693, 12:20:38.000,0,0,0,0,0,0,0,0,0,
22.81535, 12:20:38.040,0,0,0,0,0,0,0,0,0,
22.8546, 12:20:38.078,0,0,0,0,0,0,0,0,0,
22.90737, 12:20:38.132,0,0,0,0,0,0,0,0,0,
22.94828, 12:20:38.173,0,0,0,0,0,0,0,0,0,
22.98839, 12:20:38.212,0,0,0,0,0,0,0,0,0,
23.03022, 12:20:38.255,0,0,0,0,0,0,0,0,0,
23.08434, 12:20:38.310,0,0,0,0,0,0,0,0,0,
23.13427, 12:20:38.358,0,0,0,0,0,0,0,0,0,
23.17658, 12:20:38.403,0,0,0,0,0,0,0,0,0,
23.22801, 12:20:38.454,0,0,0,0,0,0,0,0,0,
23.28594, 12:20:38.512,0,0,0,0,0,0,0,0,0,
23.33273, 12:20:38.557,0,0,0,0,0,0,0,0,0,
23.36969, 12:20:38.596,0,0,0,0,0,0,0,0,0,
23.41143, 12:20:38.635,0,0,0,0,0,0,0,0,0,
23.46989, 12:20:38.694,0,0,0,0,0,0,0,0,0,
23.51224, 12:20:38.736,0,0,0,0,0,0,0,0,0,
23.55156, 12:20:38.775,0,0,0,0,0,0,0,0,0,
23.58901, 12:20:38.813,0,0,0,0,0,0,0,0,0,
23.64392, 12:20:38.868,0,0,0,0,0,0,0,0,0,
23.6877, 12:20:38.911,0,0,0,0,0,0,0,0,0,
23.72946, 12:20:38.954,0,0,0,0,0,0,0,0,0,
23.76824, 12:20:38.992,0,0,0,0,0,0,0,0,0,
23.824, 12:20:39.049,0,0,0,0,0,0,0,0,0,
23.86563, 12:20:39.091,0,0,0,0,0,0,0,0,0,
23.90793, 12:20:39.132,0,0,0,0,0,0,0,0,0,
23.95498, 12:20:39.180,0,0,0,0,0,0,0,0,0,
24.00743, 12:20:39.233,0,0,0,0,0,0,0,0,0,
24.05187, 12:20:39.276,0,0,0,0,0,0,0,0,0,
24.08926, 12:20:39.313,0,0,0,0,0,0,0,0,0,
24.13272, 12:20:39.356,0,0,0,0,0,0,0,0,0,
24.1842, 12:20:39.409,0,0,0,0,0,0,0,0,0,
24.2251, 12:20:39.449,0,0,0,0,0,0,0,0,0,
24.26521, 12:20:39.489,0,0,0,0,0,0,0,0,0,
24.31028, 12:20:39.536,0,0,0,0,0,0,0,0,0,
24.37544, 12:20:39.600,0,0,0,0,0,0,0,0,0,
24.43865, 12:20:39.663,0,0,0,0,0,0,0,0,0,
24.48632, 12:20:39.710,0,0,0,0,0,0,0,0,0,
24.53509, 12:20:39.759,0,0,0,0,0,0,0,0,0,
24.58115, 12:20:39.805,0,0,0,0,0,0,0,0,0,
24.61938, 12:20:39.843,0,0,0,0,0,0,0,0,0,
24.6614, 12:20:39.886,0,0,0,0,0,0,0,0,0,
24.714, 12:20:39.939,0,0,0,0,0,0,0,0,0,
24.76144, 12:20:39.986,0,0,0,0,0,0,0,0,0,
