Elapsed_Time, System_Time, Euler_Roll, Euler_Pitch, Euler_Yaw, Gyro_Roll, Gyro_Pitch, Gyro_Yaw, Accel_x, Accel_y, Accel_z
0.02, 10:38:08.468,0,0,0,0,0,0,0,0,0,
0.04, 10:38:08.902,0,0,0,0,0,0,0,0,0,
0.3733333, 10:38:16.063,0,0,0,0,0,0,0,0,0,
0.505461, 10:38:16.151,0,0,0,0,0,0,0,0,0,
0.570272, 10:38:16.224,0,0,0,0,0,0,0,0,0,
0.6137883, 10:38:16.249,0,0,0,0,0,0,0,0,0,
0.6598128, 10:38:16.296,0,0,0,0,0,0,0,0,0,
0.6930318, 10:38:16.329,0,0,0,0,0,0,0,0,0,
0.7242618, 10:38:16.360,0,0,0,0,0,0,0,0,0,
0.7549804, 10:38:16.391,0,0,0,0,0,0,0,0,0,
0.7798974, 10:38:16.416,0,0,0,0,0,0,0,0,0,
0.8113003, 10:38:16.448,0,0,0,0,0,0,0,0,0,
0.8486227, 10:38:16.484,0,0,0,0,0,0,0,0,0,
0.8746993, 10:38:16.509,0,0,0,0,0,0,0,0,0,
0.8972799, 10:38:16.533,0,0,0,0,0,0,0,0,0,
0.9759612, 10:38:16.614,0,0,0,0,0,0,0,0,0,
1.003168, 10:38:16.639,0,0,0,0,0,0,0,0,0,
1.094146, 10:38:16.732,0,0,0,0,0,0,0,0,0,
1.123792, 10:38:16.760,0,0,0,0,0,0,0,0,0,
1.149964, 10:38:16.784,0,0,0,0,0,0,0,0,0,
1.214823, 10:38:16.851,0,0,0,0,0,0,0,0,0,
1.242568, 10:38:16.878,0,0,0,0,0,0,0,0,0,
1.265307, 10:38:16.900,0,0,0,0,0,0,0,0,0,
1.294726, 10:38:16.930,0,0,0,0,0,0,0,0,0,
1.319949, 10:38:16.955,0,0,0,0,0,0,0,0,0,
1.345316, 10:38:16.981,0,0,0,0,0,0,0,0,0,
1.422026, 10:38:17.061,0,0,0,0,0,0,0,0,0,
1.468997, 10:38:17.106,0,0,0,0,0,0,0,0,0,
1.495787, 10:38:17.358,0,0,0,0,0,0,0,0,0,
1.74936, 10:38:17.394,0,0,0,0,0,0,0,0,0,
2.082693, 10:38:17.815,0,0,0,0,0,0,0,0,0,
2.416027, 10:38:18.603,0,0,0,0,0,0,0,0,0,
2.479562, 10:38:18.654,0,0,0,0,0,0,0,0,0,
2.506531, 10:38:18.680,0,0,0,0,0,0,0,0,0,
2.531284, 10:38:18.704,0,0,0,0,0,0,0,0,0,
2.577304, 10:38:18.751,0,0,0,0,0,0,0,0,0,
2.602783, 10:38:18.776,0,0,0,0,0,0,0,0,0,
2.627467, 10:38:18.800,0,0,0,0,0,0,0,0,0,
2.651785, 10:38:18.824,0,0,0,0,0,0,0,0,0,
2.675681, 10:38:18.848,0,0,0,0,0,0,0,0,0,
2.700093, 10:38:18.873,0,0,0,0,0,0,0,0,0,
2.724843, 10:38:18.898,0,0,0,0,0,0,0,0,0,
2.748441, 10:38:18.922,0,0,0,0,0,0,0,0,0,
2.771346, 10:38:18.944,0,0,0,0,0,0,0,0,0,
2.794686, 10:38:18.968,0,0,0,0,0,0,0,0,0,
2.818258, 10:38:18.991,0,0,0,0,0,0,0,0,0,
2.840421, 10:38:19.015,0,0,0,0,0,0,0,0,0,
2.86502, 10:38:19.038,0,0,0,0,0,0,0,0,0,
2.888845, 10:38:19.061,0,0,0,0,0,0,0,0,0,
2.913271, 10:38:19.086,0,0,0,0,0,0,0,0,0,
2.937396, 10:38:19.110,0,0,0,0,0,0,0,0,0,
2.962537, 10:38:19.137,0,0,0,0,0,0,0,0,0,
2.986188, 10:38:19.159,0,0,0,0,0,0,0,0,0,
3.008368, 10:38:19.181,0,0,0,0,0,0,0,0,0,
3.031353, 10:38:19.204,0,0,0,0,0,0,0,0,0,
3.056375, 10:38:19.229,0,0,0,0,0,0,0,0,0,
3.080997, 10:38:19.255,0,0,0,0,0,0,0,0,0,
3.106158, 10:38:19.279,0,0,0,0,0,0,0,0,0,
3.131354, 10:38:19.305,0,0,0,0,0,0,0,0,0,
3.155029, 10:38:19.328,0,0,0,0,0,0,0,0,0,
3.178234, 10:38:19.352,0,0,0,0,0,0,0,0,0,
3.201976, 10:38:19.376,0,0,0,0,0,0,0,0,0,
3.226419, 10:38:19.399,0,0,0,0,0,0,0,0,0,
3.250524, 10:38:19.423,0,0,0,0,0,0,0,0,0,
3.274542, 10:38:19.448,0,0,0,0,0,0,0,0,0,
3.298595, 10:38:19.472,0,0,0,0,0,0,0,0,0,
3.322499, 10:38:19.497,0,0,0,0,0,0,0,0,0,
3.352979, 10:38:19.526,0,0,0,0,0,0,0,0,0,
3.380365, 10:38:19.556,0,0,0,0,0,0,0,0,0,
3.417445, 10:38:19.591,0,0,0,0,0,0,0,0,0,
3.44508, 10:38:19.619,0,0,0,0,0,0,0,0,0,
3.471679, 10:38:19.644,0,0,0,0,0,0,0,0,0,
3.495149, 10:38:19.669,0,0,0,0,0,0,0,0,0,
3.518241, 10:38:19.692,0,0,0,0,0,0,0,0,0,
3.545536, 10:38:19.720,0,0,0,0,0,0,0,0,0,
3.573434, 10:38:19.747,0,0,0,0,0,0,0,0,0,
3.598708, 10:38:19.771,0,0,0,0,0,0,0,0,0,
3.622852, 10:38:19.796,0,0,0,0,0,0,0,0,0,
3.646552, 10:38:19.819,0,0,0,0,0,0,0,0,0,
3.668894, 10:38:19.841,0,0,0,0,0,0,0,0,0,
3.692994, 10:38:19.865,0,0,0,0,0,0,0,0,0,
3.716964, 10:38:19.890,0,0,0,0,0,0,0,0,0,
3.740693, 10:38:19.914,0,0,0,0,0,0,0,0,0,
3.76582, 10:38:19.939,0,0,0,0,0,0,0,0,0,
3.789765, 10:38:19.962,0,0,0,0,0,0,0,0,0,
3.814821, 10:38:19.988,0,0,0,0,0,0,0,0,0,
3.838142, 10:38:20.012,0,0,0,0,0,0,0,0,0,
3.862867, 10:38:20.037,0,0,0,0,0,0,0,0,0,
3.890203, 10:38:20.063,0,0,0,0,0,0,0,0,0,
3.914965, 10:38:20.089,0,0,0,0,0,0,0,0,0,
3.939891, 10:38:20.113,0,0,0,0,0,0,0,0,0,
3.964234, 10:38:20.139,0,0,0,0,0,0,0,0,0,
3.989024, 10:38:20.161,0,0,0,0,0,0,0,0,0,
4.013137, 10:38:20.186,0,0,0,0,0,0,0,0,0,
4.037534, 10:38:20.211,0,0,0,0,0,0,0,0,0,
4.062675, 10:38:20.236,0,0,0,0,0,0,0,0,0,
4.087786, 10:38:20.261,0,0,0,0,0,0,0,0,0,
4.111598, 10:38:20.284,0,0,0,0,0,0,0,0,0,
4.137415, 10:38:20.310,0,0,0,0,0,0,0,0,0,
4.160347, 10:38:20.334,0,0,0,0,0,0,0,0,0,
4.18603, 10:38:20.359,0,0,0,0,0,0,0,0,0,
4.210784, 10:38:20.384,0,0,0,0,0,0,0,0,0,
4.236309, 10:38:20.410,0,0,0,0,0,0,0,0,0,
4.262783, 10:38:20.437,0,0,0,0,0,0,0,0,0,
4.287508, 10:38:20.461,0,0,0,0,0,0,0,0,0,
4.310929, 10:38:20.484,0,0,0,0,0,0,0,0,0,
4.335488, 10:38:20.508,0,0,0,0,0,0,0,0,0,
4.360501, 10:38:20.535,0,0,0,0,0,0,0,0,0,
4.387893, 10:38:20.560,0,0,0,0,0,0,0,0,0,
4.412865, 10:38:20.585,0,0,0,0,0,0,0,0,0,
4.436502, 10:38:20.609,0,0,0,0,0,0,0,0,0,
4.459955, 10:38:20.633,0,0,0,0,0,0,0,0,0,
4.485501, 10:38:20.660,0,0,0,0,0,0,0,0,0,
4.515206, 10:38:20.688,0,0,0,0,0,0,0,0,0,
4.543354, 10:38:20.718,0,0,0,0,0,0,0,0,0,
4.577306, 10:38:20.750,0,0,0,0,0,0,0,0,0,
4.605812, 10:38:20.780,0,0,0,0,0,0,0,0,0,
4.632096, 10:38:20.806,0,0,0,0,0,0,0,0,0,
4.658749, 10:38:20.832,0,0,0,0,0,0,0,0,0,
4.682323, 10:38:20.856,0,0,0,0,0,0,0,0,0,
4.707071, 10:38:20.879,0,0,0,0,0,0,0,0,0,
4.731114, 10:38:20.903,0,0,0,0,0,0,0,0,0,
4.754562, 10:38:20.928,0,0,0,0,0,0,0,0,0,
4.778836, 10:38:20.951,0,0,0,0,0,0,0,0,0,
4.802445, 10:38:20.976,0,0,0,0,0,0,0,0,0,
4.827, 10:38:20.999,0,0,0,0,0,0,0,0,0,
4.850716, 10:38:21.023,0,0,0,0,0,0,0,0,0,
4.874311, 10:38:21.046,0,0,0,0,0,0,0,0,0,
4.898101, 10:38:21.071,0,0,0,0,0,0,0,0,0,
4.921222, 10:38:21.095,0,0,0,0,0,0,0,0,0,
4.946176, 10:38:21.119,0,0,0,0,0,0,0,0,0,
4.969513, 10:38:21.143,0,0,0,0,0,0,0,0,0,
4.993024, 10:38:21.166,0,0,0,0,0,0,0,0,0,
5.016793, 10:38:21.190,0,0,0,0,0,0,0,0,0,
5.041156, 10:38:21.215,0,0,0,0,0,0,0,0,0,
5.066626, 10:38:21.239,0,0,0,0,0,0,0,0,0,
5.090652, 10:38:21.263,0,0,0,0,0,0,0,0,0,
5.115543, 10:38:21.288,0,0,0,0,0,0,0,0,0,
5.138402, 10:38:21.311,0,0,0,0,0,0,0,0,0,
5.162689, 10:38:21.336,0,0,0,0,0,0,0,0,0,
5.189269, 10:38:21.362,0,0,0,0,0,0,0,0,0,
5.214292, 10:38:21.387,0,0,0,0,0,0,0,0,0,
5.237952, 10:38:21.410,0,0,0,0,0,0,0,0,0,
5.26157, 10:38:21.436,0,0,0,0,0,0,0,0,0,
5.286735, 10:38:21.460,0,0,0,0,0,0,0,0,0,
5.310011, 10:38:21.483,0,0,0,0,0,0,0,0,0,
5.335002, 10:38:21.508,0,0,0,0,0,0,0,0,0,
5.35849, 10:38:21.532,0,0,0,0,0,0,0,0,0,
5.382298, 10:38:21.556,0,0,0,0,0,0,0,0,0,
5.40714, 10:38:21.580,0,0,0,0,0,0,0,0,0,
5.430541, 10:38:21.602,0,0,0,0,0,0,0,0,0,
5.453705, 10:38:21.626,0,0,0,0,0,0,0,0,0,
5.476984, 10:38:21.649,0,0,0,0,0,0,0,0,0,
5.499417, 10:38:21.672,0,0,0,0,0,0,0,0,0,
5.522348, 10:38:21.696,0,0,0,0,0,0,0,0,0,
5.546755, 10:38:21.720,0,0,0,0,0,0,0,0,0,
5.574062, 10:38:21.747,0,0,0,0,0,0,0,0,0,
5.599331, 10:38:21.772,0,0,0,0,0,0,0,0,0,
5.624767, 10:38:21.799,0,0,0,0,0,0,0,0,0,
5.651029, 10:38:21.825,0,0,0,0,0,0,0,0,0,
5.678657, 10:38:21.851,0,0,0,0,0,0,0,0,0,
5.70468, 10:38:21.879,0,0,0,0,0,0,0,0,0,
5.740086, 10:38:21.914,0,0,0,0,0,0,0,0,0,
5.766778, 10:38:21.939,0,0,0,0,0,0,0,0,0,
5.793013, 10:38:21.966,0,0,0,0,0,0,0,0,0,
5.817835, 10:38:21.990,0,0,0,0,0,0,0,0,0,
5.84127, 10:38:22.015,0,0,0,0,0,0,0,0,0,
5.868828, 10:38:22.041,0,0,0,0,0,0,0,0,0,
5.892881, 10:38:22.065,0,0,0,0,0,0,0,0,0,
5.91617, 10:38:22.089,0,0,0,0,0,0,0,0,0,
5.941669, 10:38:22.115,0,0,0,0,0,0,0,0,0,
5.968235, 10:38:22.141,0,0,0,0,0,0,0,0,0,
5.991493, 10:38:22.165,0,0,0,0,0,0,0,0,0,
6.016416, 10:38:22.189,0,0,0,0,0,0,0,0,0,
6.039742, 10:38:22.213,0,0,0,0,0,0,0,0,0,
6.065584, 10:38:22.240,0,0,0,0,0,0,0,0,0,
6.091256, 10:38:22.264,0,0,0,0,0,0,0,0,0,
6.116432, 10:38:22.290,0,0,0,0,0,0,0,0,0,
6.140299, 10:38:22.314,0,0,0,0,0,0,0,0,0,
6.166108, 10:38:22.339,0,0,0,0,0,0,0,0,0,
6.192462, 10:38:22.365,0,0,0,0,0,0,0,0,0,
6.21889, 10:38:22.391,0,0,0,0,0,0,0,0,0,
6.243666, 10:38:22.418,0,0,0,0,0,0,0,0,0,
6.269753, 10:38:22.443,0,0,0,0,0,0,0,0,0,
6.294461, 10:38:22.467,0,0,0,0,0,0,0,0,0,
6.319203, 10:38:22.492,0,0,0,0,0,0,0,0,0,
6.344881, 10:38:22.518,0,0,0,0,0,0,0,0,0,
6.370694, 10:38:22.544,0,0,0,0,0,0,0,0,0,
6.396588, 10:38:22.570,0,0,0,0,0,0,0,0,0,
6.420753, 10:38:22.596,0,0,0,0,0,0,0,0,0,
6.447613, 10:38:22.621,0,0,0,0,0,0,0,0,0,
6.47159, 10:38:22.645,0,0,0,0,0,0,0,0,0,
6.496563, 10:38:22.670,0,0,0,0,0,0,0,0,0,
6.520303, 10:38:22.694,0,0,0,0,0,0,0,0,0,
6.54653, 10:38:22.719,0,0,0,0,0,0,0,0,0,
6.572738, 10:38:22.745,0,0,0,0,0,0,0,0,0,
6.59937, 10:38:22.772,0,0,0,0,0,0,0,0,0,
6.624446, 10:38:22.798,0,0,0,0,0,0,0,0,0,
6.649714, 10:38:22.822,0,0,0,0,0,0,0,0,0,
6.674067, 10:38:22.848,0,0,0,0,0,0,0,0,0,
6.698563, 10:38:22.872,0,0,0,0,0,0,0,0,0,
6.723694, 10:38:22.898,0,0,0,0,0,0,0,0,0,
6.750384, 10:38:22.924,0,0,0,0,0,0,0,0,0,
6.776294, 10:38:22.950,0,0,0,0,0,0,0,0,0,
6.800303, 10:38:22.974,0,0,0,0,0,0,0,0,0,
6.831362, 10:38:23.003,0,0,0,0,0,0,0,0,0,
6.857593, 10:38:23.031,0,0,0,0,0,0,0,0,0,
6.891091, 10:38:23.065,0,0,0,0,0,0,0,0,0,
6.918415, 10:38:23.091,0,0,0,0,0,0,0,0,0,
6.944551, 10:38:23.118,0,0,0,0,0,0,0,0,0,
6.97018, 10:38:23.143,0,0,0,0,0,0,0,0,0,
6.992616, 10:38:23.165,0,0,0,0,0,0,0,0,0,
7.016546, 10:38:23.190,0,0,0,0,0,0,0,0,0,
7.039693, 10:38:23.213,0,0,0,0,0,0,0,0,0,
7.065093, 10:38:23.238,0,0,0,0,0,0,0,0,0,
7.092594, 10:38:23.265,0,0,0,0,0,0,0,0,0,
7.117847, 10:38:23.291,0,0,0,0,0,0,0,0,0,
7.142056, 10:38:23.316,0,0,0,0,0,0,0,0,0,
7.165911, 10:38:23.339,0,0,0,0,0,0,0,0,0,
7.190104, 10:38:23.363,0,0,0,0,0,0,0,0,0,
7.215338, 10:38:23.387,0,0,0,0,0,0,0,0,0,
7.239383, 10:38:23.412,0,0,0,0,0,0,0,0,0,
7.264768, 10:38:23.438,0,0,0,0,0,0,0,0,0,
7.289104, 10:38:23.461,0,0,0,0,0,0,0,0,0,
7.313508, 10:38:23.486,0,0,0,0,0,0,0,0,0,
7.337528, 10:38:23.510,0,0,0,0,0,0,0,0,0,
7.361367, 10:38:23.535,0,0,0,0,0,0,0,0,0,
7.386874, 10:38:23.560,0,0,0,0,0,0,0,0,0,
7.411452, 10:38:23.584,0,0,0,0,0,0,0,0,0,
7.436006, 10:38:23.610,0,0,0,0,0,0,0,0,0,
7.461249, 10:38:23.635,0,0,0,0,0,0,0,0,0,
7.485854, 10:38:23.659,0,0,0,0,0,0,0,0,0,
7.509511, 10:38:23.683,0,0,0,0,0,0,0,0,0,
7.536042, 10:38:23.709,0,0,0,0,0,0,0,0,0,
7.562006, 10:38:23.736,0,0,0,0,0,0,0,0,0,
7.589954, 10:38:23.762,0,0,0,0,0,0,0,0,0,
7.614501, 10:38:23.787,0,0,0,0,0,0,0,0,0,
7.637691, 10:38:23.810,0,0,0,0,0,0,0,0,0,
7.66286, 10:38:23.836,0,0,0,0,0,0,0,0,0,
7.688848, 10:38:23.861,0,0,0,0,0,0,0,0,0,
7.713596, 10:38:23.887,0,0,0,0,0,0,0,0,0,
7.741049, 10:38:23.915,0,0,0,0,0,0,0,0,0,
7.766199, 10:38:23.939,0,0,0,0,0,0,0,0,0,
7.790492, 10:38:23.963,0,0,0,0,0,0,0,0,0,
7.816237, 10:38:23.989,0,0,0,0,0,0,0,0,0,
7.841187, 10:38:24.015,0,0,0,0,0,0,0,0,0,
7.868139, 10:38:24.041,0,0,0,0,0,0,0,0,0,
7.892284, 10:38:24.065,0,0,0,0,0,0,0,0,0,
7.916822, 10:38:24.090,0,0,0,0,0,0,0,0,0,
7.941943, 10:38:24.116,0,0,0,0,0,0,0,0,0,
7.968807, 10:38:24.142,0,0,0,0,0,0,0,0,0,
7.997763, 10:38:24.171,0,0,0,0,0,0,0,0,0,
8.025845, 10:38:24.200,0,0,0,0,0,0,0,0,0,
8.060626, 10:38:24.234,0,0,0,0,0,0,0,0,0,
8.08703, 10:38:24.259,0,0,0,0,0,0,0,0,0,
8.114554, 10:38:24.287,0,0,0,0,0,0,0,0,0,
8.139163, 10:38:24.311,0,0,0,0,0,0,0,0,0,
8.163914, 10:38:24.337,0,0,0,0,0,0,0,0,0,
8.189293, 10:38:24.362,0,0,0,0,0,0,0,0,0,
8.215075, 10:38:24.388,0,0,0,0,0,0,0,0,0,
8.240239, 10:38:24.413,0,0,0,0,0,0,0,0,0,
8.265732, 10:38:24.438,0,0,0,0,0,0,0,0,0,
8.289777, 10:38:24.462,0,0,0,0,0,0,0,0,0,
8.314555, 10:38:24.488,0,0,0,0,0,0,0,0,0,
8.339481, 10:38:24.512,0,0,0,0,0,0,0,0,0,
8.364736, 10:38:24.539,0,0,0,0,0,0,0,0,0,
8.391177, 10:38:24.564,0,0,0,0,0,0,0,0,0,
8.416355, 10:38:24.589,0,0,0,0,0,0,0,0,0,
8.440843, 10:38:24.615,0,0,0,0,0,0,0,0,0,
8.467276, 10:38:24.640,0,0,0,0,0,0,0,0,0,
8.492096, 10:38:24.665,0,0,0,0,0,0,0,0,0,
8.51723, 10:38:24.690,0,0,0,0,0,0,0,0,0,
8.541619, 10:38:24.716,0,0,0,0,0,0,0,0,0,
8.569071, 10:38:24.742,0,0,0,0,0,0,0,0,0,
8.596123, 10:38:24.770,0,0,0,0,0,0,0,0,0,
8.621333, 10:38:24.795,0,0,0,0,0,0,0,0,0,
8.649122, 10:38:24.821,0,0,0,0,0,0,0,0,0,
8.675658, 10:38:24.849,0,0,0,0,0,0,0,0,0,
8.701612, 10:38:24.875,0,0,0,0,0,0,0,0,0,
8.72638, 10:38:24.898,0,0,0,0,0,0,0,0,0,
8.750893, 10:38:24.923,0,0,0,0,0,0,0,0,0,
8.775647, 10:38:24.948,0,0,0,0,0,0,0,0,0,
8.802233, 10:38:24.976,0,0,0,0,0,0,0,0,0,
8.828032, 10:38:25.000,0,0,0,0,0,0,0,0,0,
8.861276, 10:38:25.035,0,0,0,0,0,0,0,0,0,
8.890445, 10:38:25.064,0,0,0,0,0,0,0,0,0,
8.915786, 10:38:25.089,0,0,0,0,0,0,0,0,0,
8.945829, 10:38:25.120,0,0,0,0,0,0,0,0,0,
8.973835, 10:38:25.147,0,0,0,0,0,0,0,0,0,
8.99977, 10:38:25.173,0,0,0,0,0,0,0,0,0,
9.025738, 10:38:25.200,0,0,0,0,0,0,0,0,0,
9.052222, 10:38:25.225,0,0,0,0,0,0,0,0,0,
9.076344, 10:38:25.250,0,0,0,0,0,0,0,0,0,
9.101194, 10:38:25.274,0,0,0,0,0,0,0,0,0,
9.127447, 10:38:25.300,0,0,0,0,0,0,0,0,0,
9.157288, 10:38:25.331,0,0,0,0,0,0,0,0,0,
9.186194, 10:38:25.360,0,0,0,0,0,0,0,0,0,
9.218966, 10:38:25.392,0,0,0,0,0,0,0,0,0,
9.246841, 10:38:25.420,0,0,0,0,0,0,0,0,0,
9.273833, 10:38:25.448,0,0,0,0,0,0,0,0,0,
9.298513, 10:38:25.471,0,0,0,0,0,0,0,0,0,
9.325195, 10:38:25.498,0,0,0,0,0,0,0,0,0,
9.349974, 10:38:25.523,0,0,0,0,0,0,0,0,0,
9.376204, 10:38:25.549,0,0,0,0,0,0,0,0,0,
9.400222, 10:38:25.575,0,0,0,0,0,0,0,0,0,
9.426604, 10:38:25.600,0,0,0,0,0,0,0,0,0,
9.450731, 10:38:25.624,0,0,0,0,0,0,0,0,0,
9.475386, 10:38:25.647,0,0,0,0,0,0,0,0,0,
9.500439, 10:38:25.674,0,0,0,0,0,0,0,0,0,
9.543194, 10:38:25.717,0,0,0,0,0,0,0,0,0,
9.571412, 10:38:25.744,0,0,0,0,0,0,0,0,0,
9.599045, 10:38:25.772,0,0,0,0,0,0,0,0,0,
9.625446, 10:38:25.799,0,0,0,0,0,0,0,0,0,
9.651685, 10:38:25.825,0,0,0,0,0,0,0,0,0,
9.67697, 10:38:25.850,0,0,0,0,0,0,0,0,0,
9.701343, 10:38:25.875,0,0,0,0,0,0,0,0,0,
9.72675, 10:38:25.900,0,0,0,0,0,0,0,0,0,
9.751026, 10:38:25.924,0,0,0,0,0,0,0,0,0,
9.776354, 10:38:25.949,0,0,0,0,0,0,0,0,0,
9.801014, 10:38:25.975,0,0,0,0,0,0,0,0,0,
9.827034, 10:38:26.000,0,0,0,0,0,0,0,0,0,
9.851727, 10:38:26.024,0,0,0,0,0,0,0,0,0,
9.876537, 10:38:26.049,0,0,0,0,0,0,0,0,0,
9.90151, 10:38:26.075,0,0,0,0,0,0,0,0,0,
9.927214, 10:38:26.100,0,0,0,0,0,0,0,0,0,
9.953566, 10:38:26.127,0,0,0,0,0,0,0,0,0,
9.979495, 10:38:26.153,0,0,0,0,0,0,0,0,0,
10.00508, 10:38:26.179,0,0,0,0,0,0,0,0,0,
10.03262, 10:38:26.205,0,0,0,0,0,0,0,0,0,
10.05686, 10:38:26.230,0,0,0,0,0,0,0,0,0,
10.08152, 10:38:26.256,0,0,0,0,0,0,0,0,0,
10.10888, 10:38:26.281,0,0,0,0,0,0,0,0,0,
10.1349, 10:38:26.307,0,0,0,0,0,0,0,0,0,
10.16069, 10:38:26.334,0,0,0,0,0,0,0,0,0,
10.18691, 10:38:26.359,0,0,0,0,0,0,0,0,0,
10.24186, 10:38:26.417,0,0,0,0,0,0,0,0,0,
10.30116, 10:38:26.477,0,0,0,0,0,0,0,0,0,
10.37803, 10:38:26.553,0,0,0,0,0,0,0,0,0,
10.44698, 10:38:26.623,0,0,0,0,0,0,0,0,0,
10.50344, 10:38:26.678,0,0,0,0,0,0,0,0,0,
10.53139, 10:38:26.704,0,0,0,0,0,0,0,0,0,
10.55634, 10:38:26.729,0,0,0,0,0,0,0,0,0,
10.58266, 10:38:26.757,0,0,0,0,0,0,0,0,0,
10.61011, 10:38:26.783,0,0,0,0,0,0,0,0,0,
10.63399, 10:38:26.807,0,0,0,0,0,0,0,0,0,
10.65814, 10:38:26.831,0,0,0,0,0,0,0,0,0,
10.6817, 10:38:26.855,0,0,0,0,0,0,0,0,0,
10.70603, 10:38:26.879,0,0,0,0,0,0,0,0,0,
10.72935, 10:38:26.902,0,0,0,0,0,0,0,0,0,
10.75244, 10:38:26.925,0,0,0,0,0,0,0,0,0,
10.77545, 10:38:26.948,0,0,0,0,0,0,0,0,0,
10.79879, 10:38:26.972,0,0,0,0,0,0,0,0,0,
10.82276, 10:38:26.997,0,0,0,0,0,0,0,0,0,
10.84746, 10:38:27.020,0,0,0,0,0,0,0,0,0,
10.87184, 10:38:27.044,0,0,0,0,0,0,0,0,0,
10.89718, 10:38:27.070,0,0,0,0,0,0,0,0,0,
10.92263, 10:38:27.096,0,0,0,0,0,0,0,0,0,
10.94904, 10:38:27.122,0,0,0,0,0,0,0,0,0,
10.97355, 10:38:27.145,0,0,0,0,0,0,0,0,0,
10.99728, 10:38:27.170,0,0,0,0,0,0,0,0,0,
11.02115, 10:38:27.195,0,0,0,0,0,0,0,0,0,
11.04641, 10:38:27.220,0,0,0,0,0,0,0,0,0,
11.0706, 10:38:27.243,0,0,0,0,0,0,0,0,0,
11.09512, 10:38:27.267,0,0,0,0,0,0,0,0,0,
11.11865, 10:38:27.291,0,0,0,0,0,0,0,0,0,
11.14235, 10:38:27.316,0,0,0,0,0,0,0,0,0,
11.16635, 10:38:27.339,0,0,0,0,0,0,0,0,0,
11.19058, 10:38:27.363,0,0,0,0,0,0,0,0,0,
11.21907, 10:38:27.392,0,0,0,0,0,0,0,0,0,
11.24594, 10:38:27.420,0,0,0,0,0,0,0,0,0,
11.27114, 10:38:27.444,0,0,0,0,0,0,0,0,0,
11.29923, 10:38:27.472,0,0,0,0,0,0,0,0,0,
11.32243, 10:38:27.496,0,0,0,0,0,0,0,0,0,
11.3473, 10:38:27.520,0,0,0,0,0,0,0,0,0,
11.37068, 10:38:27.544,0,0,0,0,0,0,0,0,0,
11.39577, 10:38:27.569,0,0,0,0,0,0,0,0,0,
11.42073, 10:38:27.595,0,0,0,0,0,0,0,0,0,
11.45055, 10:38:27.625,0,0,0,0,0,0,0,0,0,
11.4781, 10:38:27.653,0,0,0,0,0,0,0,0,0,
11.52253, 10:38:27.698,0,0,0,0,0,0,0,0,0,
11.55108, 10:38:27.724,0,0,0,0,0,0,0,0,0,
11.5824, 10:38:27.757,0,0,0,0,0,0,0,0,0,
11.62065, 10:38:27.796,0,0,0,0,0,0,0,0,0,
11.71149, 10:38:27.887,0,0,0,0,0,0,0,0,0,
11.81487, 10:38:27.992,0,0,0,0,0,0,0,0,0,
12.00501, 10:38:28.189,0,0,0,0,0,0,0,0,0,
12.04511, 10:38:28.219,0,0,0,0,0,0,0,0,0,
12.37844, 10:38:28.604,0,0,0,0,0,0,0,0,0,
12.41976, 10:38:28.630,0,0,0,0,0,0,0,0,0,
12.44711, 10:38:28.657,0,0,0,0,0,0,0,0,0,
12.52759, 10:38:28.739,0,0,0,0,0,0,0,0,0,
12.55664, 10:38:28.765,0,0,0,0,0,0,0,0,0,
12.58852, 10:38:28.800,0,0,0,0,0,0,0,0,0,
12.62165, 10:38:28.832,0,0,0,0,0,0,0,0,0,
12.65328, 10:38:28.863,0,0,0,0,0,0,0,0,0,
12.69442, 10:38:28.904,0,0,0,0,0,0,0,0,0,
12.72366, 10:38:28.933,0,0,0,0,0,0,0,0,0,
12.74997, 10:38:28.957,0,0,0,0,0,0,0,0,0,
12.7767, 10:38:28.985,0,0,0,0,0,0,0,0,0,
12.80144, 10:38:29.010,0,0,0,0,0,0,0,0,0,
12.83552, 10:38:29.044,0,0,0,0,0,0,0,0,0,
12.86185, 10:38:29.071,0,0,0,0,0,0,0,0,0,
12.8877, 10:38:29.096,0,0,0,0,0,0,0,0,0,
12.91219, 10:38:29.121,0,0,0,0,0,0,0,0,0,
12.93987, 10:38:29.148,0,0,0,0,0,0,0,0,0,
12.96552, 10:38:29.175,0,0,0,0,0,0,0,0,0,
12.99159, 10:38:29.200,0,0,0,0,0,0,0,0,0,
13.0188, 10:38:29.227,0,0,0,0,0,0,0,0,0,
13.04275, 10:38:29.252,0,0,0,0,0,0,0,0,0,
13.07018, 10:38:29.280,0,0,0,0,0,0,0,0,0,
13.09659, 10:38:29.305,0,0,0,0,0,0,0,0,0,
13.12058, 10:38:29.330,0,0,0,0,0,0,0,0,0,
13.1456, 10:38:29.355,0,0,0,0,0,0,0,0,0,
13.17192, 10:38:29.381,0,0,0,0,0,0,0,0,0,
13.19789, 10:38:29.407,0,0,0,0,0,0,0,0,0,
13.22358, 10:38:29.433,0,0,0,0,0,0,0,0,0,
13.24855, 10:38:29.458,0,0,0,0,0,0,0,0,0,
13.27385, 10:38:29.483,0,0,0,0,0,0,0,0,0,
13.29948, 10:38:29.508,0,0,0,0,0,0,0,0,0,
13.32477, 10:38:29.534,0,0,0,0,0,0,0,0,0,
13.35042, 10:38:29.559,0,0,0,0,0,0,0,0,0,
13.37558, 10:38:29.584,0,0,0,0,0,0,0,0,0,
13.39994, 10:38:29.609,0,0,0,0,0,0,0,0,0,
13.42439, 10:38:29.635,0,0,0,0,0,0,0,0,0,
13.45036, 10:38:29.659,0,0,0,0,0,0,0,0,0,
13.4759, 10:38:29.684,0,0,0,0,0,0,0,0,0,
13.5017, 10:38:29.711,0,0,0,0,0,0,0,0,0,
13.52697, 10:38:29.736,0,0,0,0,0,0,0,0,0,
13.55367, 10:38:29.763,0,0,0,0,0,0,0,0,0,
13.58064, 10:38:29.790,0,0,0,0,0,0,0,0,0,
13.6086, 10:38:29.818,0,0,0,0,0,0,0,0,0,
13.64177, 10:38:29.855,0,0,0,0,0,0,0,0,0,
13.68863, 10:38:29.903,0,0,0,0,0,0,0,0,0,
13.73548, 10:38:29.944,0,0,0,0,0,0,0,0,0,
13.75998, 10:38:29.969,0,0,0,0,0,0,0,0,0,
13.85308, 10:38:30.065,0,0,0,0,0,0,0,0,0,
13.9263, 10:38:30.138,0,0,0,0,0,0,0,0,0,
13.95427, 10:38:30.163,0,0,0,0,0,0,0,0,0,
14.01459, 10:38:30.225,0,0,0,0,0,0,0,0,0,
14.07698, 10:38:30.289,0,0,0,0,0,0,0,0,0,
14.11644, 10:38:30.327,0,0,0,0,0,0,0,0,0,
14.14379, 10:38:30.353,0,0,0,0,0,0,0,0,0,
14.17036, 10:38:30.380,0,0,0,0,0,0,0,0,0,
14.196, 10:38:30.405,0,0,0,0,0,0,0,0,0,
14.22162, 10:38:30.431,0,0,0,0,0,0,0,0,0,
14.24842, 10:38:30.458,0,0,0,0,0,0,0,0,0,
14.2738, 10:38:30.483,0,0,0,0,0,0,0,0,0,
14.29942, 10:38:30.508,0,0,0,0,0,0,0,0,0,
14.32335, 10:38:30.533,0,0,0,0,0,0,0,0,0,
14.35028, 10:38:30.559,0,0,0,0,0,0,0,0,0,
14.37579, 10:38:30.585,0,0,0,0,0,0,0,0,0,
14.40389, 10:38:30.615,0,0,0,0,0,0,0,0,0,
14.43192, 10:38:30.641,0,0,0,0,0,0,0,0,0,
14.45888, 10:38:30.669,0,0,0,0,0,0,0,0,0,
14.48725, 10:38:30.697,0,0,0,0,0,0,0,0,0,
14.51366, 10:38:30.723,0,0,0,0,0,0,0,0,0,
14.54396, 10:38:30.754,0,0,0,0,0,0,0,0,0,
14.57339, 10:38:30.782,0,0,0,0,0,0,0,0,0,
14.59938, 10:38:30.807,0,0,0,0,0,0,0,0,0,
14.62419, 10:38:30.834,0,0,0,0,0,0,0,0,0,
14.64949, 10:38:30.858,0,0,0,0,0,0,0,0,0,
14.67463, 10:38:30.883,0,0,0,0,0,0,0,0,0,
14.69996, 10:38:30.909,0,0,0,0,0,0,0,0,0,
14.72461, 10:38:30.935,0,0,0,0,0,0,0,0,0,
14.74938, 10:38:30.958,0,0,0,0,0,0,0,0,0,
14.77421, 10:38:30.983,0,0,0,0,0,0,0,0,0,
14.79926, 10:38:31.008,0,0,0,0,0,0,0,0,0,
14.82448, 10:38:31.033,0,0,0,0,0,0,0,0,0,
14.84964, 10:38:31.058,0,0,0,0,0,0,0,0,0,
14.87435, 10:38:31.083,0,0,0,0,0,0,0,0,0,
14.89921, 10:38:31.107,0,0,0,0,0,0,0,0,0,
14.92549, 10:38:31.136,0,0,0,0,0,0,0,0,0,
14.9548, 10:38:31.163,0,0,0,0,0,0,0,0,0,
14.98698, 10:38:31.198,0,0,0,0,0,0,0,0,0,
15.01734, 10:38:31.226,0,0,0,0,0,0,0,0,0,
15.04992, 10:38:31.260,0,0,0,0,0,0,0,0,0,
15.07761, 10:38:31.286,0,0,0,0,0,0,0,0,0,
15.10217, 10:38:31.312,0,0,0,0,0,0,0,0,0,
15.12728, 10:38:31.336,0,0,0,0,0,0,0,0,0,
15.1513, 10:38:31.360,0,0,0,0,0,0,0,0,0,
15.18844, 10:38:31.397,0,0,0,0,0,0,0,0,0,
15.21655, 10:38:31.425,0,0,0,0,0,0,0,0,0,
15.24203, 10:38:31.450,0,0,0,0,0,0,0,0,0,
15.26599, 10:38:31.474,0,0,0,0,0,0,0,0,0,
15.28884, 10:38:31.497,0,0,0,0,0,0,0,0,0,
15.31219, 10:38:31.520,0,0,0,0,0,0,0,0,0,
15.3366, 10:38:31.545,0,0,0,0,0,0,0,0,0,
15.36168, 10:38:31.572,0,0,0,0,0,0,0,0,0,
15.38748, 10:38:31.596,0,0,0,0,0,0,0,0,0,
15.41158, 10:38:31.620,0,0,0,0,0,0,0,0,0,
15.43635, 10:38:31.645,0,0,0,0,0,0,0,0,0,
15.46137, 10:38:31.671,0,0,0,0,0,0,0,0,0,
15.48782, 10:38:31.697,0,0,0,0,0,0,0,0,0,
15.51252, 10:38:31.722,0,0,0,0,0,0,0,0,0,
15.54181, 10:38:31.752,0,0,0,0,0,0,0,0,0,
15.56962, 10:38:31.779,0,0,0,0,0,0,0,0,0,
15.59444, 10:38:31.802,0,0,0,0,0,0,0,0,0,
15.62065, 10:38:31.830,0,0,0,0,0,0,0,0,0,
15.64934, 10:38:31.859,0,0,0,0,0,0,0,0,0,
15.67751, 10:38:31.887,0,0,0,0,0,0,0,0,0,
15.70304, 10:38:31.912,0,0,0,0,0,0,0,0,0,
15.72946, 10:38:31.938,0,0,0,0,0,0,0,0,0,
15.75422, 10:38:31.962,0,0,0,0,0,0,0,0,0,
15.77983, 10:38:31.989,0,0,0,0,0,0,0,0,0,
15.80608, 10:38:32.016,0,0,0,0,0,0,0,0,0,
15.8324, 10:38:32.042,0,0,0,0,0,0,0,0,0,
15.8571, 10:38:32.066,0,0,0,0,0,0,0,0,0,
15.88193, 10:38:32.092,0,0,0,0,0,0,0,0,0,
15.90855, 10:38:32.117,0,0,0,0,0,0,0,0,0,
15.93441, 10:38:32.143,0,0,0,0,0,0,0,0,0,
15.95941, 10:38:32.168,0,0,0,0,0,0,0,0,0,
15.9842, 10:38:32.194,0,0,0,0,0,0,0,0,0,
16.00982, 10:38:32.219,0,0,0,0,0,0,0,0,0,
16.03528, 10:38:32.244,0,0,0,0,0,0,0,0,0,
16.06042, 10:38:32.270,0,0,0,0,0,0,0,0,0,
16.0882, 10:38:32.298,0,0,0,0,0,0,0,0,0,
16.11749, 10:38:32.327,0,0,0,0,0,0,0,0,0,
16.14791, 10:38:32.358,0,0,0,0,0,0,0,0,0,
16.18184, 10:38:32.392,0,0,0,0,0,0,0,0,0,
16.20978, 10:38:32.418,0,0,0,0,0,0,0,0,0,
16.2345, 10:38:32.443,0,0,0,0,0,0,0,0,0,
16.25904, 10:38:32.469,0,0,0,0,0,0,0,0,0,
16.28398, 10:38:32.493,0,0,0,0,0,0,0,0,0,
16.30959, 10:38:32.517,0,0,0,0,0,0,0,0,0,
16.3339, 10:38:32.542,0,0,0,0,0,0,0,0,0,
16.35758, 10:38:32.565,0,0,0,0,0,0,0,0,0,
16.38166, 10:38:32.591,0,0,0,0,0,0,0,0,0,
16.40695, 10:38:32.615,0,0,0,0,0,0,0,0,0,
16.43055, 10:38:32.639,0,0,0,0,0,0,0,0,0,
16.45706, 10:38:32.665,0,0,0,0,0,0,0,0,0,
16.48257, 10:38:32.692,0,0,0,0,0,0,0,0,0,
16.50889, 10:38:32.717,0,0,0,0,0,0,0,0,0,
16.53651, 10:38:32.746,0,0,0,0,0,0,0,0,0,
16.58039, 10:38:32.791,0,0,0,0,0,0,0,0,0,
16.61029, 10:38:32.820,0,0,0,0,0,0,0,0,0,
16.63789, 10:38:32.847,0,0,0,0,0,0,0,0,0,
16.6693, 10:38:32.879,0,0,0,0,0,0,0,0,0,
16.70286, 10:38:32.912,0,0,0,0,0,0,0,0,0,
16.7325, 10:38:32.942,0,0,0,0,0,0,0,0,0,
16.77411, 10:38:32.984,0,0,0,0,0,0,0,0,0,
16.80871, 10:38:33.018,0,0,0,0,0,0,0,0,0,
16.84032, 10:38:33.051,0,0,0,0,0,0,0,0,0,
16.87201, 10:38:33.081,0,0,0,0,0,0,0,0,0,
16.90497, 10:38:33.115,0,0,0,0,0,0,0,0,0,
16.93588, 10:38:33.146,0,0,0,0,0,0,0,0,0,
16.9722, 10:38:33.182,0,0,0,0,0,0,0,0,0,
17.00407, 10:38:33.215,0,0,0,0,0,0,0,0,0,
17.03732, 10:38:33.245,0,0,0,0,0,0,0,0,0,
17.06754, 10:38:33.276,0,0,0,0,0,0,0,0,0,
17.09982, 10:38:33.308,0,0,0,0,0,0,0,0,0,
17.13093, 10:38:33.340,0,0,0,0,0,0,0,0,0,
17.15681, 10:38:33.365,0,0,0,0,0,0,0,0,0,
17.18074, 10:38:33.390,0,0,0,0,0,0,0,0,0,
17.20725, 10:38:33.416,0,0,0,0,0,0,0,0,0,
17.23226, 10:38:33.441,0,0,0,0,0,0,0,0,0,
17.26122, 10:38:33.472,0,0,0,0,0,0,0,0,0,
17.29254, 10:38:33.502,0,0,0,0,0,0,0,0,0,
17.3315, 10:38:33.542,0,0,0,0,0,0,0,0,0,
17.35825, 10:38:33.567,0,0,0,0,0,0,0,0,0,
17.38598, 10:38:33.595,0,0,0,0,0,0,0,0,0,
17.41231, 10:38:33.621,0,0,0,0,0,0,0,0,0,
17.43932, 10:38:33.648,0,0,0,0,0,0,0,0,0,
17.46452, 10:38:33.673,0,0,0,0,0,0,0,0,0,
17.48979, 10:38:33.698,0,0,0,0,0,0,0,0,0,
17.51319, 10:38:33.722,0,0,0,0,0,0,0,0,0,
17.54106, 10:38:33.751,0,0,0,0,0,0,0,0,0,
17.56943, 10:38:33.778,0,0,0,0,0,0,0,0,0,
17.5951, 10:38:33.804,0,0,0,0,0,0,0,0,0,
17.62065, 10:38:33.830,0,0,0,0,0,0,0,0,0,
17.64614, 10:38:33.855,0,0,0,0,0,0,0,0,0,
17.67143, 10:38:33.880,0,0,0,0,0,0,0,0,0,
17.6966, 10:38:33.906,0,0,0,0,0,0,0,0,0,
17.72146, 10:38:33.931,0,0,0,0,0,0,0,0,0,
17.74748, 10:38:33.956,0,0,0,0,0,0,0,0,0,
17.77226, 10:38:33.981,0,0,0,0,0,0,0,0,0,
17.79716, 10:38:34.006,0,0,0,0,0,0,0,0,0,
17.8215, 10:38:34.031,0,0,0,0,0,0,0,0,0,
17.8472, 10:38:34.056,0,0,0,0,0,0,0,0,0,
17.87304, 10:38:34.081,0,0,0,0,0,0,0,0,0,
17.89787, 10:38:34.106,0,0,0,0,0,0,0,0,0,
17.92391, 10:38:34.133,0,0,0,0,0,0,0,0,0,
17.95081, 10:38:34.160,0,0,0,0,0,0,0,0,0,
17.97646, 10:38:34.185,0,0,0,0,0,0,0,0,0,
18.00186, 10:38:34.211,0,0,0,0,0,0,0,0,0,
18.06043, 10:38:34.271,0,0,0,0,0,0,0,0,0,
18.09031, 10:38:34.299,0,0,0,0,0,0,0,0,0,
18.12218, 10:38:34.332,0,0,0,0,0,0,0,0,0,
18.16547, 10:38:34.376,0,0,0,0,0,0,0,0,0,
18.20436, 10:38:34.415,0,0,0,0,0,0,0,0,0,
18.23609, 10:38:34.445,0,0,0,0,0,0,0,0,0,
18.26335, 10:38:34.473,0,0,0,0,0,0,0,0,0,
18.29074, 10:38:34.499,0,0,0,0,0,0,0,0,0,
18.31619, 10:38:34.524,0,0,0,0,0,0,0,0,0,
18.34144, 10:38:34.550,0,0,0,0,0,0,0,0,0,
18.36912, 10:38:34.578,0,0,0,0,0,0,0,0,0,
18.39814, 10:38:34.607,0,0,0,0,0,0,0,0,0,
18.4268, 10:38:34.638,0,0,0,0,0,0,0,0,0,
18.46061, 10:38:34.671,0,0,0,0,0,0,0,0,0,
18.53452, 10:38:34.746,0,0,0,0,0,0,0,0,0,
18.58673, 10:38:34.797,0,0,0,0,0,0,0,0,0,
18.63538, 10:38:34.845,0,0,0,0,0,0,0,0,0,
18.68145, 10:38:34.892,0,0,0,0,0,0,0,0,0,
18.7219, 10:38:34.932,0,0,0,0,0,0,0,0,0,
18.76655, 10:38:34.976,0,0,0,0,0,0,0,0,0,
18.7939, 10:38:35.002,0,0,0,0,0,0,0,0,0,
18.81927, 10:38:35.028,0,0,0,0,0,0,0,0,0,
18.84444, 10:38:35.054,0,0,0,0,0,0,0,0,0,
18.87228, 10:38:35.081,0,0,0,0,0,0,0,0,0,
18.89914, 10:38:35.109,0,0,0,0,0,0,0,0,0,
18.92458, 10:38:35.134,0,0,0,0,0,0,0,0,0,
18.95016, 10:38:35.158,0,0,0,0,0,0,0,0,0,
18.97397, 10:38:35.183,0,0,0,0,0,0,0,0,0,
18.99878, 10:38:35.207,0,0,0,0,0,0,0,0,0,
19.02434, 10:38:35.233,0,0,0,0,0,0,0,0,0,
19.05136, 10:38:35.260,0,0,0,0,0,0,0,0,0,
19.07708, 10:38:35.285,0,0,0,0,0,0,0,0,0,
19.10238, 10:38:35.312,0,0,0,0,0,0,0,0,0,
19.12984, 10:38:35.339,0,0,0,0,0,0,0,0,0,
19.15508, 10:38:35.364,0,0,0,0,0,0,0,0,0,
19.18119, 10:38:35.392,0,0,0,0,0,0,0,0,0,
19.20959, 10:38:35.418,0,0,0,0,0,0,0,0,0,
19.23474, 10:38:35.443,0,0,0,0,0,0,0,0,0,
19.26007, 10:38:35.470,0,0,0,0,0,0,0,0,0,
19.28645, 10:38:35.495,0,0,0,0,0,0,0,0,0,
19.31194, 10:38:35.520,0,0,0,0,0,0,0,0,0,
19.33722, 10:38:35.545,0,0,0,0,0,0,0,0,0,
19.36156, 10:38:35.572,0,0,0,0,0,0,0,0,0,
19.38887, 10:38:35.598,0,0,0,0,0,0,0,0,0,
19.41425, 10:38:35.624,0,0,0,0,0,0,0,0,0,
19.43944, 10:38:35.650,0,0,0,0,0,0,0,0,0,
19.46621, 10:38:35.676,0,0,0,0,0,0,0,0,0,
19.49365, 10:38:35.702,0,0,0,0,0,0,0,0,0,
19.5186, 10:38:35.728,0,0,0,0,0,0,0,0,0,
19.55062, 10:38:35.761,0,0,0,0,0,0,0,0,0,
19.58144, 10:38:35.792,0,0,0,0,0,0,0,0,0,
19.61095, 10:38:35.821,0,0,0,0,0,0,0,0,0,
19.64419, 10:38:35.853,0,0,0,0,0,0,0,0,0,
19.67099, 10:38:35.879,0,0,0,0,0,0,0,0,0,
19.69949, 10:38:35.908,0,0,0,0,0,0,0,0,0,
19.72386, 10:38:35.933,0,0,0,0,0,0,0,0,0,
19.75245, 10:38:35.960,0,0,0,0,0,0,0,0,0,
19.77896, 10:38:35.987,0,0,0,0,0,0,0,0,0,
19.80455, 10:38:36.014,0,0,0,0,0,0,0,0,0,
19.83068, 10:38:36.040,0,0,0,0,0,0,0,0,0,
19.85703, 10:38:36.066,0,0,0,0,0,0,0,0,0,
19.88172, 10:38:36.091,0,0,0,0,0,0,0,0,0,
19.90808, 10:38:36.117,0,0,0,0,0,0,0,0,0,
19.9332, 10:38:36.142,0,0,0,0,0,0,0,0,0,
19.95943, 10:38:36.168,0,0,0,0,0,0,0,0,0,
19.98596, 10:38:36.196,0,0,0,0,0,0,0,0,0,
20.0117, 10:38:36.220,0,0,0,0,0,0,0,0,0,
20.03761, 10:38:36.246,0,0,0,0,0,0,0,0,0,
20.06315, 10:38:36.272,0,0,0,0,0,0,0,0,0,
20.08881, 10:38:36.297,0,0,0,0,0,0,0,0,0,
20.11413, 10:38:36.322,0,0,0,0,0,0,0,0,0,
20.14045, 10:38:36.350,0,0,0,0,0,0,0,0,0,
20.16708, 10:38:36.376,0,0,0,0,0,0,0,0,0,
20.19341, 10:38:36.402,0,0,0,0,0,0,0,0,0,
20.21918, 10:38:36.428,0,0,0,0,0,0,0,0,0,
20.24296, 10:38:36.453,0,0,0,0,0,0,0,0,0,
20.27056, 10:38:36.480,0,0,0,0,0,0,0,0,0,
20.29653, 10:38:36.505,0,0,0,0,0,0,0,0,0,
20.32114, 10:38:36.531,0,0,0,0,0,0,0,0,0,
20.34676, 10:38:36.556,0,0,0,0,0,0,0,0,0,
20.37255, 10:38:36.582,0,0,0,0,0,0,0,0,0,
20.39757, 10:38:36.606,0,0,0,0,0,0,0,0,0,
20.42284, 10:38:36.632,0,0,0,0,0,0,0,0,0,
20.44971, 10:38:36.658,0,0,0,0,0,0,0,0,0,
20.47521, 10:38:36.684,0,0,0,0,0,0,0,0,0,
20.5011, 10:38:36.710,0,0,0,0,0,0,0,0,0,
20.53, 10:38:36.739,0,0,0,0,0,0,0,0,0,
20.5585, 10:38:36.768,0,0,0,0,0,0,0,0,0,
20.58622, 10:38:36.796,0,0,0,0,0,0,0,0,0,
20.6128, 10:38:36.821,0,0,0,0,0,0,0,0,0,
20.63973, 10:38:36.848,0,0,0,0,0,0,0,0,0,
20.66629, 10:38:36.876,0,0,0,0,0,0,0,0,0,
20.69324, 10:38:36.902,0,0,0,0,0,0,0,0,0,
20.72454, 10:38:36.934,0,0,0,0,0,0,0,0,0,
20.75394, 10:38:36.963,0,0,0,0,0,0,0,0,0,
20.79399, 10:38:37.004,0,0,0,0,0,0,0,0,0,
20.82279, 10:38:37.032,0,0,0,0,0,0,0,0,0,
20.8503, 10:38:37.059,0,0,0,0,0,0,0,0,0,
20.8898, 10:38:37.100,0,0,0,0,0,0,0,0,0,
20.91982, 10:38:37.129,0,0,0,0,0,0,0,0,0,
20.94724, 10:38:37.158,0,0,0,0,0,0,0,0,0,
20.9753, 10:38:37.184,0,0,0,0,0,0,0,0,0,
21.0015, 10:38:37.211,0,0,0,0,0,0,0,0,0,
21.02901, 10:38:37.238,0,0,0,0,0,0,0,0,0,
21.05511, 10:38:37.263,0,0,0,0,0,0,0,0,0,
21.08056, 10:38:37.291,0,0,0,0,0,0,0,0,0,
21.10733, 10:38:37.317,0,0,0,0,0,0,0,0,0,
21.13363, 10:38:37.343,0,0,0,0,0,0,0,0,0,
21.15878, 10:38:37.368,0,0,0,0,0,0,0,0,0,
21.18556, 10:38:37.394,0,0,0,0,0,0,0,0,0,
21.21145, 10:38:37.420,0,0,0,0,0,0,0,0,0,
21.23902, 10:38:37.447,0,0,0,0,0,0,0,0,0,
21.26616, 10:38:37.476,0,0,0,0,0,0,0,0,0,
21.29344, 10:38:37.502,0,0,0,0,0,0,0,0,0,
21.31996, 10:38:37.529,0,0,0,0,0,0,0,0,0,
21.34609, 10:38:37.556,0,0,0,0,0,0,0,0,0,
21.374, 10:38:37.583,0,0,0,0,0,0,0,0,0,
21.40037, 10:38:37.610,0,0,0,0,0,0,0,0,0,
21.42785, 10:38:37.637,0,0,0,0,0,0,0,0,0,
21.45442, 10:38:37.664,0,0,0,0,0,0,0,0,0,
21.48009, 10:38:37.690,0,0,0,0,0,0,0,0,0,
21.5067, 10:38:37.716,0,0,0,0,0,0,0,0,0,
21.53251, 10:38:37.742,0,0,0,0,0,0,0,0,0,
21.5607, 10:38:37.770,0,0,0,0,0,0,0,0,0,
21.58805, 10:38:37.797,0,0,0,0,0,0,0,0,0,
21.61431, 10:38:37.823,0,0,0,0,0,0,0,0,0,
21.64886, 10:38:37.859,0,0,0,0,0,0,0,0,0,
21.67497, 10:38:37.884,0,0,0,0,0,0,0,0,0,
21.70111, 10:38:37.911,0,0,0,0,0,0,0,0,0,
21.7286, 10:38:37.937,0,0,0,0,0,0,0,0,0,
21.75328, 10:38:37.962,0,0,0,0,0,0,0,0,0,
21.77946, 10:38:37.988,0,0,0,0,0,0,0,0,0,
21.80517, 10:38:38.016,0,0,0,0,0,0,0,0,0,
21.83211, 10:38:38.041,0,0,0,0,0,0,0,0,0,
21.8597, 10:38:38.068,0,0,0,0,0,0,0,0,0,
21.8875, 10:38:38.098,0,0,0,0,0,0,0,0,0,
21.92052, 10:38:38.131,0,0,0,0,0,0,0,0,0,
21.96175, 10:38:38.171,0,0,0,0,0,0,0,0,0,
21.98924, 10:38:38.197,0,0,0,0,0,0,0,0,0,
22.02039, 10:38:38.230,0,0,0,0,0,0,0,0,0,
22.06048, 10:38:38.270,0,0,0,0,0,0,0,0,0,
22.09023, 10:38:38.298,0,0,0,0,0,0,0,0,0,
22.11518, 10:38:38.324,0,0,0,0,0,0,0,0,0,
22.14132, 10:38:38.351,0,0,0,0,0,0,0,0,0,
22.16682, 10:38:38.375,0,0,0,0,0,0,0,0,0,
22.1918, 10:38:38.402,0,0,0,0,0,0,0,0,0,
22.22071, 10:38:38.431,0,0,0,0,0,0,0,0,0,
22.24698, 10:38:38.457,0,0,0,0,0,0,0,0,0,
22.27398, 10:38:38.483,0,0,0,0,0,0,0,0,0,
22.30053, 10:38:38.510,0,0,0,0,0,0,0,0,0,
22.32607, 10:38:38.535,0,0,0,0,0,0,0,0,0,
22.35124, 10:38:38.560,0,0,0,0,0,0,0,0,0,
22.37683, 10:38:38.586,0,0,0,0,0,0,0,0,0,
22.40256, 10:38:38.613,0,0,0,0,0,0,0,0,0,
22.43034, 10:38:38.639,0,0,0,0,0,0,0,0,0,
22.4565, 10:38:38.665,0,0,0,0,0,0,0,0,0,
22.48168, 10:38:38.692,0,0,0,0,0,0,0,0,0,
22.50984, 10:38:38.719,0,0,0,0,0,0,0,0,0,
22.5367, 10:38:38.745,0,0,0,0,0,0,0,0,0,
22.56517, 10:38:38.775,0,0,0,0,0,0,0,0,0,
22.59344, 10:38:38.802,0,0,0,0,0,0,0,0,0,
22.62059, 10:38:38.829,0,0,0,0,0,0,0,0,0,
22.64784, 10:38:38.856,0,0,0,0,0,0,0,0,0,
22.67568, 10:38:38.884,0,0,0,0,0,0,0,0,0,
22.70381, 10:38:38.914,0,0,0,0,0,0,0,0,0,
22.73472, 10:38:38.943,0,0,0,0,0,0,0,0,0,
22.76378, 10:38:38.974,0,0,0,0,0,0,0,0,0,
22.7986, 10:38:39.008,0,0,0,0,0,0,0,0,0,
22.82886, 10:38:39.039,0,0,0,0,0,0,0,0,0,
22.86063, 10:38:39.071,0,0,0,0,0,0,0,0,0,
22.89239, 10:38:39.101,0,0,0,0,0,0,0,0,0,
22.92332, 10:38:39.132,0,0,0,0,0,0,0,0,0,
22.95249, 10:38:39.160,0,0,0,0,0,0,0,0,0,
22.98228, 10:38:39.192,0,0,0,0,0,0,0,0,0,
23.01429, 10:38:39.223,0,0,0,0,0,0,0,0,0,
23.04391, 10:38:39.255,0,0,0,0,0,0,0,0,0,
23.07492, 10:38:39.284,0,0,0,0,0,0,0,0,0,
23.11232, 10:38:39.322,0,0,0,0,0,0,0,0,0,
23.1403, 10:38:39.349,0,0,0,0,0,0,0,0,0,
23.16788, 10:38:39.377,0,0,0,0,0,0,0,0,0,
23.19586, 10:38:39.404,0,0,0,0,0,0,0,0,0,
23.22798, 10:38:39.439,0,0,0,0,0,0,0,0,0,
23.2594, 10:38:39.468,0,0,0,0,0,0,0,0,0,
23.28562, 10:38:39.495,0,0,0,0,0,0,0,0,0,
23.31469, 10:38:39.523,0,0,0,0,0,0,0,0,0,
23.34262, 10:38:39.552,0,0,0,0,0,0,0,0,0,
23.3708, 10:38:39.579,0,0,0,0,0,0,0,0,0,
23.39874, 10:38:39.608,0,0,0,0,0,0,0,0,0,
23.42672, 10:38:39.636,0,0,0,0,0,0,0,0,0,
23.45386, 10:38:39.663,0,0,0,0,0,0,0,0,0,
23.48056, 10:38:39.691,0,0,0,0,0,0,0,0,0,
23.50955, 10:38:39.718,0,0,0,0,0,0,0,0,0,
23.53771, 10:38:39.747,0,0,0,0,0,0,0,0,0,
23.56822, 10:38:39.778,0,0,0,0,0,0,0,0,0,
23.59636, 10:38:39.805,0,0,0,0,0,0,0,0,0,
23.62277, 10:38:39.833,0,0,0,0,0,0,0,0,0,
23.64984, 10:38:39.858,0,0,0,0,0,0,0,0,0,
23.67613, 10:38:39.884,0,0,0,0,0,0,0,0,0,
23.70118, 10:38:39.910,0,0,0,0,0,0,0,0,0,
23.72981, 10:38:39.938,0,0,0,0,0,0,0,0,0,
23.75552, 10:38:39.964,0,0,0,0,0,0,0,0,0,
23.78109, 10:38:39.991,0,0,0,0,0,0,0,0,0,
23.80933, 10:38:40.019,0,0,0,0,0,0,0,0,0,
23.83671, 10:38:40.046,0,0,0,0,0,0,0,0,0,
23.86253, 10:38:40.072,0,0,0,0,0,0,0,0,0,
23.88845, 10:38:40.098,0,0,0,0,0,0,0,0,0,
23.91398, 10:38:40.122,0,0,0,0,0,0,0,0,0,
23.94034, 10:38:40.150,0,0,0,0,0,0,0,0,0,
23.96676, 10:38:40.175,0,0,0,0,0,0,0,0,0,
23.99165, 10:38:40.200,0,0,0,0,0,0,0,0,0,
24.01705, 10:38:40.225,0,0,0,0,0,0,0,0,0,
24.04399, 10:38:40.254,0,0,0,0,0,0,0,0,0,
24.07067, 10:38:40.279,0,0,0,0,0,0,0,0,0,
24.09743, 10:38:40.307,0,0,0,0,0,0,0,0,0,
24.12435, 10:38:40.335,0,0,0,0,0,0,0,0,0,
24.15247, 10:38:40.362,0,0,0,0,0,0,0,0,0,
24.17979, 10:38:40.389,0,0,0,0,0,0,0,0,0,
24.20975, 10:38:40.420,0,0,0,0,0,0,0,0,0,
24.23936, 10:38:40.448,0,0,0,0,0,0,0,0,0,
24.27392, 10:38:40.484,0,0,0,0,0,0,0,0,0,
24.30194, 10:38:40.512,0,0,0,0,0,0,0,0,0,
24.32899, 10:38:40.538,0,0,0,0,0,0,0,0,0,
24.35917, 10:38:40.568,0,0,0,0,0,0,0,0,0,
24.38682, 10:38:40.597,0,0,0,0,0,0,0,0,0,
24.41324, 10:38:40.622,0,0,0,0,0,0,0,0,0,
24.43921, 10:38:40.648,0,0,0,0,0,0,0,0,0,
24.46478, 10:38:40.674,0,0,0,0,0,0,0,0,0,
24.49115, 10:38:40.700,0,0,0,0,0,0,0,0,0,
24.51642, 10:38:40.726,0,0,0,0,0,0,0,0,0,
24.54922, 10:38:40.759,0,0,0,0,0,0,0,0,0,
24.57971, 10:38:40.788,0,0,0,0,0,0,0,0,0,
24.61011, 10:38:40.819,0,0,0,0,0,0,0,0,0,
24.6379, 10:38:40.847,0,0,0,0,0,0,0,0,0,
24.67164, 10:38:40.881,0,0,0,0,0,0,0,0,0,
24.69861, 10:38:40.907,0,0,0,0,0,0,0,0,0,
24.72499, 10:38:40.934,0,0,0,0,0,0,0,0,0,
24.75171, 10:38:40.960,0,0,0,0,0,0,0,0,0,
24.7783, 10:38:40.987,0,0,0,0,0,0,0,0,0,
24.8049, 10:38:41.014,0,0,0,0,0,0,0,0,0,
24.83203, 10:38:41.041,0,0,0,0,0,0,0,0,0,
24.85818, 10:38:41.067,0,0,0,0,0,0,0,0,0,
24.88432, 10:38:41.095,0,0,0,0,0,0,0,0,0,
24.91376, 10:38:41.123,0,0,0,0,0,0,0,0,0,
24.94069, 10:38:41.150,0,0,0,0,0,0,0,0,0,
24.96824, 10:38:41.176,0,0,0,0,0,0,0,0,0,
24.99508, 10:38:41.203,0,0,0,0,0,0,0,0,0,
25.02178, 10:38:41.231,0,0,0,0,0,0,0,0,0,
25.04885, 10:38:41.258,0,0,0,0,0,0,0,0,0,
25.07741, 10:38:41.285,0,0,0,0,0,0,0,0,0,
25.10397, 10:38:41.313,0,0,0,0,0,0,0,0,0,
25.13081, 10:38:41.341,0,0,0,0,0,0,0,0,0,
25.16083, 10:38:41.371,0,0,0,0,0,0,0,0,0,
25.18846, 10:38:41.397,0,0,0,0,0,0,0,0,0,
25.21421, 10:38:41.421,0,0,0,0,0,0,0,0,0,
25.24545, 10:38:41.455,0,0,0,0,0,0,0,0,0,
25.27188, 10:38:41.480,0,0,0,0,0,0,0,0,0,
25.29758, 10:38:41.506,0,0,0,0,0,0,0,0,0,
25.32281, 10:38:41.532,0,0,0,0,0,0,0,0,0,
25.34992, 10:38:41.558,0,0,0,0,0,0,0,0,0,
25.38059, 10:38:41.590,0,0,0,0,0,0,0,0,0,
25.40916, 10:38:41.618,0,0,0,0,0,0,0,0,0,
25.44496, 10:38:41.655,0,0,0,0,0,0,0,0,0,
25.47157, 10:38:41.681,0,0,0,0,0,0,0,0,0,
25.50041, 10:38:41.709,0,0,0,0,0,0,0,0,0,
25.52477, 10:38:41.734,0,0,0,0,0,0,0,0,0,
25.55454, 10:38:41.763,0,0,0,0,0,0,0,0,0,
25.58135, 10:38:41.791,0,0,0,0,0,0,0,0,0,
25.61004, 10:38:41.818,0,0,0,0,0,0,0,0,0,
25.6357, 10:38:41.843,0,0,0,0,0,0,0,0,0,
25.66083, 10:38:41.870,0,0,0,0,0,0,0,0,0,
25.68636, 10:38:41.894,0,0,0,0,0,0,0,0,0,
25.71239, 10:38:41.921,0,0,0,0,0,0,0,0,0,
25.74063, 10:38:41.950,0,0,0,0,0,0,0,0,0,
25.7679, 10:38:41.976,0,0,0,0,0,0,0,0,0,
25.79268, 10:38:42.002,0,0,0,0,0,0,0,0,0,
25.82065, 10:38:42.030,0,0,0,0,0,0,0,0,0,
25.8465, 10:38:42.056,0,0,0,0,0,0,0,0,0,
25.8735, 10:38:42.082,0,0,0,0,0,0,0,0,0,
25.89972, 10:38:42.109,0,0,0,0,0,0,0,0,0,
25.92509, 10:38:42.135,0,0,0,0,0,0,0,0,0,
25.953, 10:38:42.161,0,0,0,0,0,0,0,0,0,
25.97913, 10:38:42.187,0,0,0,0,0,0,0,0,0,
26.0042, 10:38:42.213,0,0,0,0,0,0,0,0,0,
26.03141, 10:38:42.240,0,0,0,0,0,0,0,0,0,
26.06075, 10:38:42.270,0,0,0,0,0,0,0,0,0,
26.08898, 10:38:42.298,0,0,0,0,0,0,0,0,0,
26.116, 10:38:42.325,0,0,0,0,0,0,0,0,0,
26.14257, 10:38:42.352,0,0,0,0,0,0,0,0,0,
26.17009, 10:38:42.378,0,0,0,0,0,0,0,0,0,
26.19655, 10:38:42.406,0,0,0,0,0,0,0,0,0,
26.22362, 10:38:42.433,0,0,0,0,0,0,0,0,0,
26.25113, 10:38:42.460,0,0,0,0,0,0,0,0,0,
26.27792, 10:38:42.487,0,0,0,0,0,0,0,0,0,
26.30501, 10:38:42.514,0,0,0,0,0,0,0,0,0,
26.33257, 10:38:42.541,0,0,0,0,0,0,0,0,0,
26.35776, 10:38:42.565,0,0,0,0,0,0,0,0,0,
26.3839, 10:38:42.593,0,0,0,0,0,0,0,0,0,
26.4116, 10:38:42.620,0,0,0,0,0,0,0,0,0,
26.43639, 10:38:42.645,0,0,0,0,0,0,0,0,0,
26.46279, 10:38:42.672,0,0,0,0,0,0,0,0,0,
26.48992, 10:38:42.698,0,0,0,0,0,0,0,0,0,
26.51955, 10:38:42.729,0,0,0,0,0,0,0,0,0,
26.55354, 10:38:42.764,0,0,0,0,0,0,0,0,0,
26.59104, 10:38:42.802,0,0,0,0,0,0,0,0,0,
26.62194, 10:38:42.832,0,0,0,0,0,0,0,0,0,
26.64939, 10:38:42.859,0,0,0,0,0,0,0,0,0,
26.67781, 10:38:42.886,0,0,0,0,0,0,0,0,0,
26.71351, 10:38:42.923,0,0,0,0,0,0,0,0,0,
26.74017, 10:38:42.949,0,0,0,0,0,0,0,0,0,
26.7663, 10:38:42.974,0,0,0,0,0,0,0,0,0,
26.79185, 10:38:43.001,0,0,0,0,0,0,0,0,0,
26.81801, 10:38:43.027,0,0,0,0,0,0,0,0,0,
26.84499, 10:38:43.055,0,0,0,0,0,0,0,0,0,
26.8724, 10:38:43.081,0,0,0,0,0,0,0,0,0,
26.8981, 10:38:43.107,0,0,0,0,0,0,0,0,0,
26.92366, 10:38:43.133,0,0,0,0,0,0,0,0,0,
26.95059, 10:38:43.158,0,0,0,0,0,0,0,0,0,
26.976, 10:38:43.184,0,0,0,0,0,0,0,0,0,
27.00251, 10:38:43.212,0,0,0,0,0,0,0,0,0,
27.03002, 10:38:43.239,0,0,0,0,0,0,0,0,0,
27.05659, 10:38:43.266,0,0,0,0,0,0,0,0,0,
27.08171, 10:38:43.291,0,0,0,0,0,0,0,0,0,
27.10872, 10:38:43.317,0,0,0,0,0,0,0,0,0,
27.13494, 10:38:43.344,0,0,0,0,0,0,0,0,0,
27.1614, 10:38:43.372,0,0,0,0,0,0,0,0,0,
27.19067, 10:38:43.399,0,0,0,0,0,0,0,0,0,
27.21769, 10:38:43.426,0,0,0,0,0,0,0,0,0,
27.24423, 10:38:43.454,0,0,0,0,0,0,0,0,0,
27.27276, 10:38:43.482,0,0,0,0,0,0,0,0,0,
27.29963, 10:38:43.508,0,0,0,0,0,0,0,0,0,
27.32545, 10:38:43.535,0,0,0,0,0,0,0,0,0,
27.35212, 10:38:43.561,0,0,0,0,0,0,0,0,0,
27.37779, 10:38:43.586,0,0,0,0,0,0,0,0,0,
27.40419, 10:38:43.614,0,0,0,0,0,0,0,0,0,
27.43191, 10:38:43.640,0,0,0,0,0,0,0,0,0,
27.45667, 10:38:43.665,0,0,0,0,0,0,0,0,0,
27.48349, 10:38:43.693,0,0,0,0,0,0,0,0,0,
27.51061, 10:38:43.719,0,0,0,0,0,0,0,0,0,
27.53821, 10:38:43.748,0,0,0,0,0,0,0,0,0,
27.57004, 10:38:43.780,0,0,0,0,0,0,0,0,0,
27.59762, 10:38:43.806,0,0,0,0,0,0,0,0,0,
27.62518, 10:38:43.835,0,0,0,0,0,0,0,0,0,
27.65502, 10:38:43.864,0,0,0,0,0,0,0,0,0,
27.68978, 10:38:43.901,0,0,0,0,0,0,0,0,0,
27.72033, 10:38:43.931,0,0,0,0,0,0,0,0,0,
27.75607, 10:38:43.965,0,0,0,0,0,0,0,0,0,
27.78373, 10:38:43.994,0,0,0,0,0,0,0,0,0,
27.81724, 10:38:44.025,0,0,0,0,0,0,0,0,0,
27.84436, 10:38:44.054,0,0,0,0,0,0,0,0,0,
27.87117, 10:38:44.079,0,0,0,0,0,0,0,0,0,
27.89662, 10:38:44.104,0,0,0,0,0,0,0,0,0,
27.92299, 10:38:44.132,0,0,0,0,0,0,0,0,0,
27.9493, 10:38:44.158,0,0,0,0,0,0,0,0,0,
27.976, 10:38:44.184,0,0,0,0,0,0,0,0,0,
28.0122, 10:38:44.222,0,0,0,0,0,0,0,0,0,
28.0398, 10:38:44.249,0,0,0,0,0,0,0,0,0,
28.06626, 10:38:44.276,0,0,0,0,0,0,0,0,0,
28.10167, 10:38:44.311,0,0,0,0,0,0,0,0,0,
28.12815, 10:38:44.337,0,0,0,0,0,0,0,0,0,
28.15726, 10:38:44.366,0,0,0,0,0,0,0,0,0,
28.19042, 10:38:44.399,0,0,0,0,0,0,0,0,0,
28.21819, 10:38:44.427,0,0,0,0,0,0,0,0,0,
28.2451, 10:38:44.454,0,0,0,0,0,0,0,0,0,
28.27945, 10:38:44.487,0,0,0,0,0,0,0,0,0,
28.30655, 10:38:44.517,0,0,0,0,0,0,0,0,0,
28.33517, 10:38:44.544,0,0,0,0,0,0,0,0,0,
28.3683, 10:38:44.578,0,0,0,0,0,0,0,0,0,
28.39622, 10:38:44.605,0,0,0,0,0,0,0,0,0,
28.42298, 10:38:44.632,0,0,0,0,0,0,0,0,0,
28.45739, 10:38:44.665,0,0,0,0,0,0,0,0,0,
28.48443, 10:38:44.695,0,0,0,0,0,0,0,0,0,
28.51268, 10:38:44.721,0,0,0,0,0,0,0,0,0,
28.54679, 10:38:44.756,0,0,0,0,0,0,0,0,0,
28.57523, 10:38:44.784,0,0,0,0,0,0,0,0,0,
28.60214, 10:38:44.811,0,0,0,0,0,0,0,0,0,
28.6354, 10:38:44.844,0,0,0,0,0,0,0,0,0,
28.66111, 10:38:44.871,0,0,0,0,0,0,0,0,0,
28.70897, 10:38:44.919,0,0,0,0,0,0,0,0,0,
28.73617, 10:38:44.946,0,0,0,0,0,0,0,0,0,
28.76236, 10:38:44.972,0,0,0,0,0,0,0,0,0,
28.79072, 10:38:44.999,0,0,0,0,0,0,0,0,0,
28.8186, 10:38:45.028,0,0,0,0,0,0,0,0,0,
28.8478, 10:38:45.058,0,0,0,0,0,0,0,0,0,
28.88003, 10:38:45.090,0,0,0,0,0,0,0,0,0,
28.9171, 10:38:45.126,0,0,0,0,0,0,0,0,0,
28.94542, 10:38:45.155,0,0,0,0,0,0,0,0,0,
28.97331, 10:38:45.182,0,0,0,0,0,0,0,0,0,
28.99917, 10:38:45.207,0,0,0,0,0,0,0,0,0,
29.02523, 10:38:45.234,0,0,0,0,0,0,0,0,0,
29.05848, 10:38:45.267,0,0,0,0,0,0,0,0,0,
29.08379, 10:38:45.294,0,0,0,0,0,0,0,0,0,
29.1111, 10:38:45.319,0,0,0,0,0,0,0,0,0,
29.14697, 10:38:45.357,0,0,0,0,0,0,0,0,0,
29.17582, 10:38:45.385,0,0,0,0,0,0,0,0,0,
29.20411, 10:38:45.415,0,0,0,0,0,0,0,0,0,
29.2353, 10:38:45.444,0,0,0,0,0,0,0,0,0,
29.26162, 10:38:45.471,0,0,0,0,0,0,0,0,0,
29.28974, 10:38:45.498,0,0,0,0,0,0,0,0,0,
29.32475, 10:38:45.534,0,0,0,0,0,0,0,0,0,
29.35186, 10:38:45.560,0,0,0,0,0,0,0,0,0,
29.37671, 10:38:45.585,0,0,0,0,0,0,0,0,0,
29.41373, 10:38:45.623,0,0,0,0,0,0,0,0,0,
29.44073, 10:38:45.651,0,0,0,0,0,0,0,0,0,
29.46771, 10:38:45.676,0,0,0,0,0,0,0,0,0,
29.50228, 10:38:45.712,0,0,0,0,0,0,0,0,0,
29.52888, 10:38:45.738,0,0,0,0,0,0,0,0,0,
29.55704, 10:38:45.766,0,0,0,0,0,0,0,0,0,
29.59137, 10:38:45.802,0,0,0,0,0,0,0,0,0,
29.6199, 10:38:45.828,0,0,0,0,0,0,0,0,0,
29.64619, 10:38:45.856,0,0,0,0,0,0,0,0,0,
29.68001, 10:38:45.890,0,0,0,0,0,0,0,0,0,
29.70785, 10:38:45.917,0,0,0,0,0,0,0,0,0,
29.735, 10:38:45.943,0,0,0,0,0,0,0,0,0,
29.76918, 10:38:45.979,0,0,0,0,0,0,0,0,0,
29.7965, 10:38:46.005,0,0,0,0,0,0,0,0,0,
29.82292, 10:38:46.033,0,0,0,0,0,0,0,0,0,
29.85852, 10:38:46.068,0,0,0,0,0,0,0,0,0,
29.88573, 10:38:46.096,0,0,0,0,0,0,0,0,0,
29.91422, 10:38:46.123,0,0,0,0,0,0,0,0,0,
29.94735, 10:38:46.157,0,0,0,0,0,0,0,0,0,
29.97723, 10:38:46.187,0,0,0,0,0,0,0,0,0,
30.00624, 10:38:46.216,0,0,0,0,0,0,0,0,0,
30.04155, 10:38:46.252,0,0,0,0,0,0,0,0,0,
30.07644, 10:38:46.285,0,0,0,0,0,0,0,0,0,
30.1056, 10:38:46.316,0,0,0,0,0,0,0,0,0,
30.15688, 10:38:46.367,0,0,0,0,0,0,0,0,0,
30.1844, 10:38:46.394,0,0,0,0,0,0,0,0,0,
30.21111, 10:38:46.421,0,0,0,0,0,0,0,0,0,
30.24008, 10:38:46.450,0,0,0,0,0,0,0,0,0,
30.26852, 10:38:46.477,0,0,0,0,0,0,0,0,0,
30.29515, 10:38:46.527,0,0,0,0,0,0,0,0,0,
30.34479, 10:38:46.555,0,0,0,0,0,0,0,0,0,
30.37442, 10:38:46.583,0,0,0,0,0,0,0,0,0,
30.40195, 10:38:46.612,0,0,0,0,0,0,0,0,0,
30.43004, 10:38:46.639,0,0,0,0,0,0,0,0,0,
30.45896, 10:38:46.668,0,0,0,0,0,0,0,0,0,
30.48581, 10:38:46.696,0,0,0,0,0,0,0,0,0,
30.51443, 10:38:46.724,0,0,0,0,0,0,0,0,0,
30.54827, 10:38:46.759,0,0,0,0,0,0,0,0,0,
30.58184, 10:38:46.792,0,0,0,0,0,0,0,0,0,
30.60989, 10:38:46.819,0,0,0,0,0,0,0,0,0,
30.63649, 10:38:46.844,0,0,0,0,0,0,0,0,0,
30.66366, 10:38:46.873,0,0,0,0,0,0,0,0,0,
30.69136, 10:38:46.900,0,0,0,0,0,0,0,0,0,
30.72517, 10:38:46.935,0,0,0,0,0,0,0,0,0,
30.75404, 10:38:46.962,0,0,0,0,0,0,0,0,0,
30.78162, 10:38:46.991,0,0,0,0,0,0,0,0,0,
30.8137, 10:38:47.022,0,0,0,0,0,0,0,0,0,
30.84961, 10:38:47.060,0,0,0,0,0,0,0,0,0,
30.888, 10:38:47.099,0,0,0,0,0,0,0,0,0,
30.92648, 10:38:47.136,0,0,0,0,0,0,0,0,0,
30.96453, 10:38:47.175,0,0,0,0,0,0,0,0,0,
31.0028, 10:38:47.212,0,0,0,0,0,0,0,0,0,
31.04073, 10:38:47.250,0,0,0,0,0,0,0,0,0,
31.0792, 10:38:47.288,0,0,0,0,0,0,0,0,0,
31.1154, 10:38:47.325,0,0,0,0,0,0,0,0,0,
31.15983, 10:38:47.371,0,0,0,0,0,0,0,0,0,
31.212, 10:38:47.423,0,0,0,0,0,0,0,0,0,
31.25226, 10:38:47.462,0,0,0,0,0,0,0,0,0,
31.27981, 10:38:47.488,0,0,0,0,0,0,0,0,0,
31.3055, 10:38:47.515,0,0,0,0,0,0,0,0,0,
31.33282, 10:38:47.541,0,0,0,0,0,0,0,0,0,
31.35998, 10:38:47.569,0,0,0,0,0,0,0,0,0,
31.39163, 10:38:47.601,0,0,0,0,0,0,0,0,0,
31.42069, 10:38:47.630,0,0,0,0,0,0,0,0,0,
31.44721, 10:38:47.656,0,0,0,0,0,0,0,0,0,
31.48119, 10:38:47.691,0,0,0,0,0,0,0,0,0,
31.5088, 10:38:47.718,0,0,0,0,0,0,0,0,0,
31.53577, 10:38:47.745,0,0,0,0,0,0,0,0,0,
31.57009, 10:38:47.780,0,0,0,0,0,0,0,0,0,
31.59675, 10:38:47.805,0,0,0,0,0,0,0,0,0,
31.62233, 10:38:47.832,0,0,0,0,0,0,0,0,0,
31.65897, 10:38:47.868,0,0,0,0,0,0,0,0,0,
31.68452, 10:38:47.895,0,0,0,0,0,0,0,0,0,
31.71198, 10:38:47.921,0,0,0,0,0,0,0,0,0,
31.74889, 10:38:47.958,0,0,0,0,0,0,0,0,0,
31.77441, 10:38:47.983,0,0,0,0,0,0,0,0,0,
31.80153, 10:38:48.011,0,0,0,0,0,0,0,0,0,
31.83691, 10:38:48.046,0,0,0,0,0,0,0,0,0,
31.86652, 10:38:48.076,0,0,0,0,0,0,0,0,0,
31.89625, 10:38:48.105,0,0,0,0,0,0,0,0,0,
31.9258, 10:38:48.135,0,0,0,0,0,0,0,0,0,
31.95546, 10:38:48.164,0,0,0,0,0,0,0,0,0,
31.99109, 10:38:48.200,0,0,0,0,0,0,0,0,0,
32.02061, 10:38:48.230,0,0,0,0,0,0,0,0,0,
32.04982, 10:38:48.258,0,0,0,0,0,0,0,0,0,
32.07911, 10:38:48.288,0,0,0,0,0,0,0,0,0,
32.10802, 10:38:48.318,0,0,0,0,0,0,0,0,0,
32.13853, 10:38:48.347,0,0,0,0,0,0,0,0,0,
32.16809, 10:38:48.379,0,0,0,0,0,0,0,0,0,
32.20002, 10:38:48.410,0,0,0,0,0,0,0,0,0,
32.22951, 10:38:48.438,0,0,0,0,0,0,0,0,0,
32.25854, 10:38:48.467,0,0,0,0,0,0,0,0,0,
32.28802, 10:38:48.499,0,0,0,0,0,0,0,0,0,
32.32343, 10:38:48.533,0,0,0,0,0,0,0,0,0,
32.36146, 10:38:48.573,0,0,0,0,0,0,0,0,0,
32.39637, 10:38:48.604,0,0,0,0,0,0,0,0,0,
32.42456, 10:38:48.634,0,0,0,0,0,0,0,0,0,
32.45371, 10:38:48.663,0,0,0,0,0,0,0,0,0,
32.48211, 10:38:48.691,0,0,0,0,0,0,0,0,0,
32.51159, 10:38:48.720,0,0,0,0,0,0,0,0,0,
32.54414, 10:38:48.754,0,0,0,0,0,0,0,0,0,
32.57674, 10:38:48.785,0,0,0,0,0,0,0,0,0,
32.60537, 10:38:48.815,0,0,0,0,0,0,0,0,0,
32.63251, 10:38:48.842,0,0,0,0,0,0,0,0,0,
32.65976, 10:38:48.869,0,0,0,0,0,0,0,0,0,
32.68687, 10:38:48.895,0,0,0,0,0,0,0,0,0,
32.71535, 10:38:48.924,0,0,0,0,0,0,0,0,0,
32.74941, 10:38:48.959,0,0,0,0,0,0,0,0,0,
32.78035, 10:38:48.989,0,0,0,0,0,0,0,0,0,
32.80849, 10:38:49.017,0,0,0,0,0,0,0,0,0,
32.8381, 10:38:49.047,0,0,0,0,0,0,0,0,0,
32.86495, 10:38:49.075,0,0,0,0,0,0,0,0,0,
32.89242, 10:38:49.101,0,0,0,0,0,0,0,0,0,
32.92632, 10:38:49.136,0,0,0,0,0,0,0,0,0,
32.95469, 10:38:49.163,0,0,0,0,0,0,0,0,0,
32.98214, 10:38:49.191,0,0,0,0,0,0,0,0,0,
33.01568, 10:38:49.224,0,0,0,0,0,0,0,0,0,
33.04269, 10:38:49.252,0,0,0,0,0,0,0,0,0,
33.0701, 10:38:49.279,0,0,0,0,0,0,0,0,0,
33.10433, 10:38:49.313,0,0,0,0,0,0,0,0,0,
33.13204, 10:38:49.340,0,0,0,0,0,0,0,0,0,
33.15987, 10:38:49.368,0,0,0,0,0,0,0,0,0,
33.19311, 10:38:49.402,0,0,0,0,0,0,0,0,0,
33.22047, 10:38:49.430,0,0,0,0,0,0,0,0,0,
33.24967, 10:38:49.457,0,0,0,0,0,0,0,0,0,
33.28265, 10:38:49.492,0,0,0,0,0,0,0,0,0,
33.31009, 10:38:49.518,0,0,0,0,0,0,0,0,0,
33.33671, 10:38:49.544,0,0,0,0,0,0,0,0,0,
33.37075, 10:38:49.581,0,0,0,0,0,0,0,0,0,
33.39864, 10:38:49.607,0,0,0,0,0,0,0,0,0,
33.4248, 10:38:49.634,0,0,0,0,0,0,0,0,0,
33.4603, 10:38:49.670,0,0,0,0,0,0,0,0,0,
33.49177, 10:38:49.701,0,0,0,0,0,0,0,0,0,
33.53223, 10:38:49.742,0,0,0,0,0,0,0,0,0,
33.58521, 10:38:49.795,0,0,0,0,0,0,0,0,0,
33.61533, 10:38:49.823,0,0,0,0,0,0,0,0,0,
33.64093, 10:38:49.851,0,0,0,0,0,0,0,0,0,
33.66934, 10:38:49.877,0,0,0,0,0,0,0,0,0,
33.69441, 10:38:49.903,0,0,0,0,0,0,0,0,0,
33.72682, 10:38:49.938,0,0,0,0,0,0,0,0,0,
33.75624, 10:38:49.965,0,0,0,0,0,0,0,0,0,
33.78418, 10:38:49.994,0,0,0,0,0,0,0,0,0,
33.81552, 10:38:50.025,0,0,0,0,0,0,0,0,0,
33.84192, 10:38:50.052,0,0,0,0,0,0,0,0,0,
33.87111, 10:38:50.080,0,0,0,0,0,0,0,0,0,
33.9048, 10:38:50.115,0,0,0,0,0,0,0,0,0,
33.93346, 10:38:50.143,0,0,0,0,0,0,0,0,0,
33.96138, 10:38:50.171,0,0,0,0,0,0,0,0,0,
33.99444, 10:38:50.203,0,0,0,0,0,0,0,0,0,
34.02243, 10:38:50.232,0,0,0,0,0,0,0,0,0,
34.05212, 10:38:50.260,0,0,0,0,0,0,0,0,0,
34.08345, 10:38:50.293,0,0,0,0,0,0,0,0,0,
34.11455, 10:38:50.324,0,0,0,0,0,0,0,0,0,
34.14361, 10:38:50.353,0,0,0,0,0,0,0,0,0,
34.17198, 10:38:50.381,0,0,0,0,0,0,0,0,0,
34.19951, 10:38:50.409,0,0,0,0,0,0,0,0,0,
34.22608, 10:38:50.436,0,0,0,0,0,0,0,0,0,
34.26023, 10:38:50.471,0,0,0,0,0,0,0,0,0,
34.29006, 10:38:50.499,0,0,0,0,0,0,0,0,0,
34.31663, 10:38:50.526,0,0,0,0,0,0,0,0,0,
34.3498, 10:38:50.559,0,0,0,0,0,0,0,0,0,
34.37798, 10:38:50.586,0,0,0,0,0,0,0,0,0,
34.40439, 10:38:50.614,0,0,0,0,0,0,0,0,0,
34.44036, 10:38:50.650,0,0,0,0,0,0,0,0,0,
34.46912, 10:38:50.677,0,0,0,0,0,0,0,0,0,
34.49676, 10:38:50.706,0,0,0,0,0,0,0,0,0,
34.52897, 10:38:50.739,0,0,0,0,0,0,0,0,0,
34.56125, 10:38:50.772,0,0,0,0,0,0,0,0,0,
34.60127, 10:38:50.812,0,0,0,0,0,0,0,0,0,
34.63365, 10:38:50.843,0,0,0,0,0,0,0,0,0,
34.66502, 10:38:50.875,0,0,0,0,0,0,0,0,0,
34.69762, 10:38:50.905,0,0,0,0,0,0,0,0,0,
34.72364, 10:38:50.932,0,0,0,0,0,0,0,0,0,
34.75066, 10:38:50.959,0,0,0,0,0,0,0,0,0,
34.78851, 10:38:50.997,0,0,0,0,0,0,0,0,0,
34.81632, 10:38:51.024,0,0,0,0,0,0,0,0,0,
34.8441, 10:38:51.054,0,0,0,0,0,0,0,0,0,
34.87191, 10:38:51.080,0,0,0,0,0,0,0,0,0,
34.89889, 10:38:51.108,0,0,0,0,0,0,0,0,0,
34.92825, 10:38:51.138,0,0,0,0,0,0,0,0,0,
34.95542, 10:38:51.164,0,0,0,0,0,0,0,0,0,
34.98227, 10:38:51.192,0,0,0,0,0,0,0,0,0,
35.01694, 10:38:51.226,0,0,0,0,0,0,0,0,0,
35.04543, 10:38:51.255,0,0,0,0,0,0,0,0,0,
35.07195, 10:38:51.280,0,0,0,0,0,0,0,0,0,
35.10478, 10:38:51.314,0,0,0,0,0,0,0,0,0,
35.13141, 10:38:51.339,0,0,0,0,0,0,0,0,0,
35.15726, 10:38:51.366,0,0,0,0,0,0,0,0,0,
35.19461, 10:38:51.405,0,0,0,0,0,0,0,0,0,
35.22258, 10:38:51.432,0,0,0,0,0,0,0,0,0,
35.24998, 10:38:51.459,0,0,0,0,0,0,0,0,0,
35.28388, 10:38:51.494,0,0,0,0,0,0,0,0,0,
35.31149, 10:38:51.520,0,0,0,0,0,0,0,0,0,
35.33762, 10:38:51.546,0,0,0,0,0,0,0,0,0,
35.37173, 10:38:51.582,0,0,0,0,0,0,0,0,0,
35.40005, 10:38:51.610,0,0,0,0,0,0,0,0,0,
35.42871, 10:38:51.638,0,0,0,0,0,0,0,0,0,
35.4614, 10:38:51.671,0,0,0,0,0,0,0,0,0,
35.49031, 10:38:51.699,0,0,0,0,0,0,0,0,0,
35.51628, 10:38:51.724,0,0,0,0,0,0,0,0,0,
35.55065, 10:38:51.760,0,0,0,0,0,0,0,0,0,
35.58007, 10:38:51.790,0,0,0,0,0,0,0,0,0,
35.607, 10:38:51.815,0,0,0,0,0,0,0,0,0,
35.63895, 10:38:51.848,0,0,0,0,0,0,0,0,0,
35.66655, 10:38:51.876,0,0,0,0,0,0,0,0,0,
35.69389, 10:38:51.903,0,0,0,0,0,0,0,0,0,
35.72836, 10:38:51.939,0,0,0,0,0,0,0,0,0,
35.75809, 10:38:51.967,0,0,0,0,0,0,0,0,0,
35.788, 10:38:51.998,0,0,0,0,0,0,0,0,0,
35.82399, 10:38:52.034,0,0,0,0,0,0,0,0,0,
35.85511, 10:38:52.064,0,0,0,0,0,0,0,0,0,
35.88144, 10:38:52.091,0,0,0,0,0,0,0,0,0,
35.90766, 10:38:52.116,0,0,0,0,0,0,0,0,0,
35.93113, 10:38:52.140,0,0,0,0,0,0,0,0,0,
35.95734, 10:38:52.167,0,0,0,0,0,0,0,0,0,
35.99522, 10:38:52.205,0,0,0,0,0,0,0,0,0,
36.02212, 10:38:52.231,0,0,0,0,0,0,0,0,0,
36.04956, 10:38:52.258,0,0,0,0,0,0,0,0,0,
36.08329, 10:38:52.293,0,0,0,0,0,0,0,0,0,
36.1109, 10:38:52.319,0,0,0,0,0,0,0,0,0,
36.1364, 10:38:52.345,0,0,0,0,0,0,0,0,0,
36.17307, 10:38:52.382,0,0,0,0,0,0,0,0,0,
36.19983, 10:38:52.409,0,0,0,0,0,0,0,0,0,
36.22506, 10:38:52.435,0,0,0,0,0,0,0,0,0,
36.26149, 10:38:52.472,0,0,0,0,0,0,0,0,0,
36.2906, 10:38:52.500,0,0,0,0,0,0,0,0,0,
36.31686, 10:38:52.525,0,0,0,0,0,0,0,0,0,
36.35069, 10:38:52.560,0,0,0,0,0,0,0,0,0,
36.37761, 10:38:52.586,0,0,0,0,0,0,0,0,0,
36.40314, 10:38:52.613,0,0,0,0,0,0,0,0,0,
36.43872, 10:38:52.647,0,0,0,0,0,0,0,0,0,
36.46488, 10:38:52.674,0,0,0,0,0,0,0,0,0,
36.49217, 10:38:52.701,0,0,0,0,0,0,0,0,0,
36.52955, 10:38:52.740,0,0,0,0,0,0,0,0,0,
36.55932, 10:38:52.768,0,0,0,0,0,0,0,0,0,
36.58706, 10:38:52.796,0,0,0,0,0,0,0,0,0,
36.61749, 10:38:52.826,0,0,0,0,0,0,0,0,0,
36.64294, 10:38:52.852,0,0,0,0,0,0,0,0,0,
36.67015, 10:38:52.878,0,0,0,0,0,0,0,0,0,
36.70594, 10:38:52.915,0,0,0,0,0,0,0,0,0,
36.73192, 10:38:52.940,0,0,0,0,0,0,0,0,0,
36.75824, 10:38:52.967,0,0,0,0,0,0,0,0,0,
36.7952, 10:38:53.005,0,0,0,0,0,0,0,0,0,
36.82338, 10:38:53.033,0,0,0,0,0,0,0,0,0,
36.85188, 10:38:53.061,0,0,0,0,0,0,0,0,0,
36.88474, 10:38:53.095,0,0,0,0,0,0,0,0,0,
36.91434, 10:38:53.124,0,0,0,0,0,0,0,0,0,
36.94502, 10:38:53.156,0,0,0,0,0,0,0,0,0,
36.98243, 10:38:53.194,0,0,0,0,0,0,0,0,0,
37.01403, 10:38:53.222,0,0,0,0,0,0,0,0,0,
37.04048, 10:38:53.250,0,0,0,0,0,0,0,0,0,
37.0697, 10:38:53.278,0,0,0,0,0,0,0,0,0,
37.0957, 10:38:53.304,0,0,0,0,0,0,0,0,0,
37.12889, 10:38:53.338,0,0,0,0,0,0,0,0,0,
37.15615, 10:38:53.364,0,0,0,0,0,0,0,0,0,
37.18328, 10:38:53.393,0,0,0,0,0,0,0,0,0,
37.21836, 10:38:53.427,0,0,0,0,0,0,0,0,0,
37.24505, 10:38:53.455,0,0,0,0,0,0,0,0,0,
37.27272, 10:38:53.482,0,0,0,0,0,0,0,0,0,
37.30629, 10:38:53.516,0,0,0,0,0,0,0,0,0,
37.33491, 10:38:53.544,0,0,0,0,0,0,0,0,0,
37.36093, 10:38:53.571,0,0,0,0,0,0,0,0,0,
37.39604, 10:38:53.604,0,0,0,0,0,0,0,0,0,
37.42322, 10:38:53.633,0,0,0,0,0,0,0,0,0,
37.4525, 10:38:53.661,0,0,0,0,0,0,0,0,0,
37.48422, 10:38:53.694,0,0,0,0,0,0,0,0,0,
37.5111, 10:38:53.719,0,0,0,0,0,0,0,0,0,
37.53973, 10:38:53.749,0,0,0,0,0,0,0,0,0,
37.57367, 10:38:53.783,0,0,0,0,0,0,0,0,0,
37.60107, 10:38:53.811,0,0,0,0,0,0,0,0,0,
37.62789, 10:38:53.836,0,0,0,0,0,0,0,0,0,
37.66198, 10:38:53.872,0,0,0,0,0,0,0,0,0,
37.6877, 10:38:53.896,0,0,0,0,0,0,0,0,0,
37.71329, 10:38:53.923,0,0,0,0,0,0,0,0,0,
37.75138, 10:38:53.961,0,0,0,0,0,0,0,0,0,
37.77892, 10:38:53.988,0,0,0,0,0,0,0,0,0,
37.80404, 10:38:54.014,0,0,0,0,0,0,0,0,0,
37.83994, 10:38:54.048,0,0,0,0,0,0,0,0,0,
37.86563, 10:38:54.076,0,0,0,0,0,0,0,0,0,
37.89301, 10:38:54.102,0,0,0,0,0,0,0,0,0,
37.92908, 10:38:54.139,0,0,0,0,0,0,0,0,0,
37.95452, 10:38:54.163,0,0,0,0,0,0,0,0,0,
38.00846, 10:38:54.218,0,0,0,0,0,0,0,0,0,
38.03709, 10:38:54.246,0,0,0,0,0,0,0,0,0,
38.06477, 10:38:54.276,0,0,0,0,0,0,0,0,0,
38.09702, 10:38:54.306,0,0,0,0,0,0,0,0,0,
38.12994, 10:38:54.340,0,0,0,0,0,0,0,0,0,
38.16347, 10:38:54.374,0,0,0,0,0,0,0,0,0,
38.19478, 10:38:54.404,0,0,0,0,0,0,0,0,0,
38.22168, 10:38:54.431,0,0,0,0,0,0,0,0,0,
38.24849, 10:38:54.458,0,0,0,0,0,0,0,0,0,
38.27457, 10:38:54.483,0,0,0,0,0,0,0,0,0,
38.30696, 10:38:54.517,0,0,0,0,0,0,0,0,0,
38.33406, 10:38:54.542,0,0,0,0,0,0,0,0,0,
38.35895, 10:38:54.568,0,0,0,0,0,0,0,0,0,
38.39517, 10:38:54.604,0,0,0,0,0,0,0,0,0,
38.42189, 10:38:54.631,0,0,0,0,0,0,0,0,0,
38.44918, 10:38:54.657,0,0,0,0,0,0,0,0,0,
38.48458, 10:38:54.694,0,0,0,0,0,0,0,0,0,
38.51182, 10:38:54.721,0,0,0,0,0,0,0,0,0,
38.54015, 10:38:54.750,0,0,0,0,0,0,0,0,0,
38.57422, 10:38:54.783,0,0,0,0,0,0,0,0,0,
38.60045, 10:38:54.810,0,0,0,0,0,0,0,0,0,
38.62793, 10:38:54.837,0,0,0,0,0,0,0,0,0,
38.6624, 10:38:54.873,0,0,0,0,0,0,0,0,0,
38.68953, 10:38:54.898,0,0,0,0,0,0,0,0,0,
38.71563, 10:38:54.923,0,0,0,0,0,0,0,0,0,
38.75179, 10:38:54.961,0,0,0,0,0,0,0,0,0,
38.77985, 10:38:54.989,0,0,0,0,0,0,0,0,0,
38.80652, 10:38:55.015,0,0,0,0,0,0,0,0,0,
38.8405, 10:38:55.050,0,0,0,0,0,0,0,0,0,
38.86934, 10:38:55.078,0,0,0,0,0,0,0,0,0,
38.89575, 10:38:55.104,0,0,0,0,0,0,0,0,0,
38.93073, 10:38:55.141,0,0,0,0,0,0,0,0,0,
38.95619, 10:38:55.164,0,0,0,0,0,0,0,0,0,
38.98168, 10:38:55.191,0,0,0,0,0,0,0,0,0,
39.01823, 10:38:55.227,0,0,0,0,0,0,0,0,0,
39.04404, 10:38:55.254,0,0,0,0,0,0,0,0,0,
39.07138, 10:38:55.280,0,0,0,0,0,0,0,0,0,
39.10839, 10:38:55.318,0,0,0,0,0,0,0,0,0,
39.13496, 10:38:55.344,0,0,0,0,0,0,0,0,0,
39.16124, 10:38:55.371,0,0,0,0,0,0,0,0,0,
39.19649, 10:38:55.405,0,0,0,0,0,0,0,0,0,
39.22445, 10:38:55.435,0,0,0,0,0,0,0,0,0,
39.25552, 10:38:55.465,0,0,0,0,0,0,0,0,0,
39.28942, 10:38:55.501,0,0,0,0,0,0,0,0,0,
39.3227, 10:38:55.532,0,0,0,0,0,0,0,0,0,
39.35218, 10:38:55.561,0,0,0,0,0,0,0,0,0,
39.37811, 10:38:55.587,0,0,0,0,0,0,0,0,0,
39.40353, 10:38:55.613,0,0,0,0,0,0,0,0,0,
39.43071, 10:38:55.640,0,0,0,0,0,0,0,0,0,
39.4628, 10:38:55.672,0,0,0,0,0,0,0,0,0,
39.49043, 10:38:55.700,0,0,0,0,0,0,0,0,0,
39.51674, 10:38:55.725,0,0,0,0,0,0,0,0,0,
39.55267, 10:38:55.763,0,0,0,0,0,0,0,0,0,
39.58145, 10:38:55.790,0,0,0,0,0,0,0,0,0,
39.60713, 10:38:55.815,0,0,0,0,0,0,0,0,0,
39.64136, 10:38:55.851,0,0,0,0,0,0,0,0,0,
39.66999, 10:38:55.878,0,0,0,0,0,0,0,0,0,
39.69609, 10:38:55.905,0,0,0,0,0,0,0,0,0,
39.72962, 10:38:55.939,0,0,0,0,0,0,0,0,0,
39.75684, 10:38:55.965,0,0,0,0,0,0,0,0,0,
39.78363, 10:38:55.993,0,0,0,0,0,0,0,0,0,
39.82001, 10:38:56.029,0,0,0,0,0,0,0,0,0,
39.84639, 10:38:56.056,0,0,0,0,0,0,0,0,0,
39.87233, 10:38:56.081,0,0,0,0,0,0,0,0,0,
39.90814, 10:38:56.117,0,0,0,0,0,0,0,0,0,
39.93485, 10:38:56.142,0,0,0,0,0,0,0,0,0,
39.96108, 10:38:56.170,0,0,0,0,0,0,0,0,0,
39.99664, 10:38:56.205,0,0,0,0,0,0,0,0,0,
40.02271, 10:38:56.232,0,0,0,0,0,0,0,0,0,
40.04987, 10:38:56.258,0,0,0,0,0,0,0,0,0,
40.08579, 10:38:56.295,0,0,0,0,0,0,0,0,0,
40.11264, 10:38:56.322,0,0,0,0,0,0,0,0,0,
40.14106, 10:38:56.350,0,0,0,0,0,0,0,0,0,
40.17517, 10:38:56.384,0,0,0,0,0,0,0,0,0,
40.20181, 10:38:56.412,0,0,0,0,0,0,0,0,0,
40.22923, 10:38:56.438,0,0,0,0,0,0,0,0,0,
40.26349, 10:38:56.473,0,0,0,0,0,0,0,0,0,
40.2907, 10:38:56.498,0,0,0,0,0,0,0,0,0,
40.3165, 10:38:56.525,0,0,0,0,0,0,0,0,0,
40.35259, 10:38:56.562,0,0,0,0,0,0,0,0,0,
40.38488, 10:38:56.594,0,0,0,0,0,0,0,0,0,
40.41588, 10:38:56.625,0,0,0,0,0,0,0,0,0,
40.45191, 10:38:56.662,0,0,0,0,0,0,0,0,0,
40.4809, 10:38:56.690,0,0,0,0,0,0,0,0,0,
40.51059, 10:38:56.719,0,0,0,0,0,0,0,0,0,
40.53631, 10:38:56.745,0,0,0,0,0,0,0,0,0,
40.56293, 10:38:56.773,0,0,0,0,0,0,0,0,0,
40.59126, 10:38:56.799,0,0,0,0,0,0,0,0,0,
40.61926, 10:38:56.828,0,0,0,0,0,0,0,0,0,
40.64491, 10:38:56.854,0,0,0,0,0,0,0,0,0,
40.67153, 10:38:56.879,0,0,0,0,0,0,0,0,0,
40.70818, 10:38:56.917,0,0,0,0,0,0,0,0,0,
40.73429, 10:38:56.943,0,0,0,0,0,0,0,0,0,
40.76068, 10:38:56.970,0,0,0,0,0,0,0,0,0,
40.79752, 10:38:57.007,0,0,0,0,0,0,0,0,0,
40.82453, 10:38:57.035,0,0,0,0,0,0,0,0,0,
40.85257, 10:38:57.061,0,0,0,0,0,0,0,0,0,
40.88702, 10:38:57.097,0,0,0,0,0,0,0,0,0,
40.91494, 10:38:57.123,0,0,0,0,0,0,0,0,0,
40.9417, 10:38:57.151,0,0,0,0,0,0,0,0,0,
40.97578, 10:38:57.184,0,0,0,0,0,0,0,0,0,
41.00254, 10:38:57.212,0,0,0,0,0,0,0,0,0,
41.03206, 10:38:57.241,0,0,0,0,0,0,0,0,0,
41.06376, 10:38:57.273,0,0,0,0,0,0,0,0,0,
41.09106, 10:38:57.300,0,0,0,0,0,0,0,0,0,
41.11806, 10:38:57.326,0,0,0,0,0,0,0,0,0,
41.15388, 10:38:57.364,0,0,0,0,0,0,0,0,0,
41.18135, 10:38:57.391,0,0,0,0,0,0,0,0,0,
41.20861, 10:38:57.418,0,0,0,0,0,0,0,0,0,
41.24265, 10:38:57.453,0,0,0,0,0,0,0,0,0,
41.2714, 10:38:57.479,0,0,0,0,0,0,0,0,0,
41.29778, 10:38:57.506,0,0,0,0,0,0,0,0,0,
41.33147, 10:38:57.541,0,0,0,0,0,0,0,0,0,
41.3596, 10:38:57.568,0,0,0,0,0,0,0,0,0,
41.38692, 10:38:57.597,0,0,0,0,0,0,0,0,0,
41.42096, 10:38:57.630,0,0,0,0,0,0,0,0,0,
41.44911, 10:38:57.658,0,0,0,0,0,0,0,0,0,
41.47606, 10:38:57.685,0,0,0,0,0,0,0,0,0,
41.50907, 10:38:57.719,0,0,0,0,0,0,0,0,0,
41.54186, 10:38:57.753,0,0,0,0,0,0,0,0,0,
41.57616, 10:38:57.786,0,0,0,0,0,0,0,0,0,
41.61758, 10:38:57.827,0,0,0,0,0,0,0,0,0,
41.64366, 10:38:57.853,0,0,0,0,0,0,0,0,0,
41.67281, 10:38:57.881,0,0,0,0,0,0,0,0,0,
41.69807, 10:38:57.906,0,0,0,0,0,0,0,0,0,
41.73091, 10:38:57.940,0,0,0,0,0,0,0,0,0,
41.7577, 10:38:57.966,0,0,0,0,0,0,0,0,0,
41.78348, 10:38:57.992,0,0,0,0,0,0,0,0,0,
41.81957, 10:38:58.028,0,0,0,0,0,0,0,0,0,
41.84919, 10:38:58.058,0,0,0,0,0,0,0,0,0,
41.875, 10:38:58.083,0,0,0,0,0,0,0,0,0,
41.90873, 10:38:58.117,0,0,0,0,0,0,0,0,0,
41.93544, 10:38:58.143,0,0,0,0,0,0,0,0,0,
41.96132, 10:38:58.170,0,0,0,0,0,0,0,0,0,
41.99743, 10:38:58.205,0,0,0,0,0,0,0,0,0,
42.02332, 10:38:58.232,0,0,0,0,0,0,0,0,0,
42.04971, 10:38:58.258,0,0,0,0,0,0,0,0,0,
42.08735, 10:38:58.297,0,0,0,0,0,0,0,0,0,
42.11397, 10:38:58.323,0,0,0,0,0,0,0,0,0,
42.15875, 10:38:58.369,0,0,0,0,0,0,0,0,0,
42.20026, 10:38:58.410,0,0,0,0,0,0,0,0,0,
42.22946, 10:38:58.438,0,0,0,0,0,0,0,0,0,
Elapsed_Time, System_Time, Euler_Roll, Euler_Pitch, Euler_Yaw, Gyro_Roll, Gyro_Pitch, Gyro_Yaw, Accel_x, Accel_y, Accel_z
0.02, 10:39:31.173,0,0,0,0,0,0,0,0,0,
0.04, 10:39:31.288,0,0,0,0,0,0,0,0,0,
0.3733333, 10:39:31.950,0,0,0,0,0,0,0,0,0,
0.4744418, 10:39:32.042,0,0,0,0,0,0,0,0,0,
0.5347372, 10:39:32.097,0,0,0,0,0,0,0,0,0,
0.5695561, 10:39:32.130,0,0,0,0,0,0,0,0,0,
0.6352403, 10:39:32.198,0,0,0,0,0,0,0,0,0,
0.6824989, 10:39:32.245,0,0,0,0,0,0,0,0,0,
0.719144, 10:39:32.279,0,0,0,0,0,0,0,0,0,
0.7551752, 10:39:32.317,0,0,0,0,0,0,0,0,0,
0.786086, 10:39:32.346,0,0,0,0,0,0,0,0,0,
0.8307292, 10:39:32.393,0,0,0,0,0,0,0,0,0,
0.8670948, 10:39:32.429,0,0,0,0,0,0,0,0,0,
0.9087868, 10:39:32.470,0,0,0,0,0,0,0,0,0,
0.9409958, 10:39:32.501,0,0,0,0,0,0,0,0,0,
0.9737149, 10:39:32.533,0,0,0,0,0,0,0,0,0,
1.003987, 10:39:32.564,0,0,0,0,0,0,0,0,0,
1.043653, 10:39:32.604,0,0,0,0,0,0,0,0,0,
1.07787, 10:39:32.638,0,0,0,0,0,0,0,0,0,
1.108971, 10:39:32.670,0,0,0,0,0,0,0,0,0,
1.137734, 10:39:32.698,0,0,0,0,0,0,0,0,0,
1.167639, 10:39:32.728,0,0,0,0,0,0,0,0,0,
1.196142, 10:39:32.755,0,0,0,0,0,0,0,0,0,
1.237658, 10:39:32.798,0,0,0,0,0,0,0,0,0,
1.268858, 10:39:32.829,0,0,0,0,0,0,0,0,0,
1.298672, 10:39:32.858,0,0,0,0,0,0,0,0,0,
1.365034, 10:39:32.927,0,0,0,0,0,0,0,0,0,
1.395523, 10:39:32.956,0,0,0,0,0,0,0,0,0,
1.423344, 10:39:33.047,0,0,0,0,0,0,0,0,0,
1.514452, 10:39:33.076,0,0,0,0,0,0,0,0,0,
1.607758, 10:39:33.171,0,0,0,0,0,0,0,0,0,
1.775429, 10:39:33.343,0,0,0,0,0,0,0,0,0,
1.817396, 10:39:33.378,0,0,0,0,0,0,0,0,0,
1.847668, 10:39:33.408,0,0,0,0,0,0,0,0,0,
1.878469, 10:39:33.438,0,0,0,0,0,0,0,0,0,
1.907158, 10:39:33.467,0,0,0,0,0,0,0,0,0,
1.935991, 10:39:33.497,0,0,0,0,0,0,0,0,0,
1.968588, 10:39:33.529,0,0,0,0,0,0,0,0,0,
2.00221, 10:39:33.564,0,0,0,0,0,0,0,0,0,
2.046466, 10:39:33.609,0,0,0,0,0,0,0,0,0,
2.079213, 10:39:33.640,0,0,0,0,0,0,0,0,0,
2.109956, 10:39:33.671,0,0,0,0,0,0,0,0,0,
2.138239, 10:39:33.699,0,0,0,0,0,0,0,0,0,
2.165389, 10:39:33.727,0,0,0,0,0,0,0,0,0,
2.195474, 10:39:33.755,0,0,0,0,0,0,0,0,0,
2.22731, 10:39:33.789,0,0,0,0,0,0,0,0,0,
2.261335, 10:39:33.822,0,0,0,0,0,0,0,0,0,
2.290641, 10:39:33.850,0,0,0,0,0,0,0,0,0,
2.318193, 10:39:33.878,0,0,0,0,0,0,0,0,0,
2.347865, 10:39:33.909,0,0,0,0,0,0,0,0,0,
2.3778, 10:39:33.938,0,0,0,0,0,0,0,0,0,
2.405836, 10:39:33.967,0,0,0,0,0,0,0,0,0,
2.435827, 10:39:33.996,0,0,0,0,0,0,0,0,0,
2.466108, 10:39:34.027,0,0,0,0,0,0,0,0,0,
2.49565, 10:39:34.056,0,0,0,0,0,0,0,0,0,
2.522998, 10:39:34.084,0,0,0,0,0,0,0,0,0,
2.55137, 10:39:34.110,0,0,0,0,0,0,0,0,0,
2.579668, 10:39:34.139,0,0,0,0,0,0,0,0,0,
2.606679, 10:39:34.167,0,0,0,0,0,0,0,0,0,
2.636149, 10:39:34.195,0,0,0,0,0,0,0,0,0,
2.665298, 10:39:34.227,0,0,0,0,0,0,0,0,0,
2.695911, 10:39:34.256,0,0,0,0,0,0,0,0,0,
2.723949, 10:39:34.285,0,0,0,0,0,0,0,0,0,
2.753429, 10:39:34.313,0,0,0,0,0,0,0,0,0,
2.780998, 10:39:34.341,0,0,0,0,0,0,0,0,0,
2.809807, 10:39:34.369,0,0,0,0,0,0,0,0,0,
2.83702, 10:39:34.398,0,0,0,0,0,0,0,0,0,
2.867791, 10:39:34.429,0,0,0,0,0,0,0,0,0,
2.897217, 10:39:34.457,0,0,0,0,0,0,0,0,0,
2.92505, 10:39:34.486,0,0,0,0,0,0,0,0,0,
2.953388, 10:39:34.512,0,0,0,0,0,0,0,0,0,
2.981414, 10:39:34.542,0,0,0,0,0,0,0,0,0,
3.009892, 10:39:34.569,0,0,0,0,0,0,0,0,0,
3.038139, 10:39:34.597,0,0,0,0,0,0,0,0,0,
3.066849, 10:39:34.627,0,0,0,0,0,0,0,0,0,
3.096993, 10:39:34.658,0,0,0,0,0,0,0,0,0,
3.130403, 10:39:34.692,0,0,0,0,0,0,0,0,0,
3.165186, 10:39:34.727,0,0,0,0,0,0,0,0,0,
3.201982, 10:39:34.763,0,0,0,0,0,0,0,0,0,
3.234846, 10:39:34.795,0,0,0,0,0,0,0,0,0,
3.263744, 10:39:34.824,0,0,0,0,0,0,0,0,0,
3.29388, 10:39:34.854,0,0,0,0,0,0,0,0,0,
3.324195, 10:39:34.886,0,0,0,0,0,0,0,0,0,
3.35711, 10:39:34.918,0,0,0,0,0,0,0,0,0,
3.387388, 10:39:34.949,0,0,0,0,0,0,0,0,0,
3.417119, 10:39:34.977,0,0,0,0,0,0,0,0,0,
3.445119, 10:39:35.006,0,0,0,0,0,0,0,0,0,
3.474935, 10:39:35.035,0,0,0,0,0,0,0,0,0,
3.506017, 10:39:35.067,0,0,0,0,0,0,0,0,0,
3.535111, 10:39:35.095,0,0,0,0,0,0,0,0,0,
3.563246, 10:39:35.124,0,0,0,0,0,0,0,0,0,
3.592495, 10:39:35.153,0,0,0,0,0,0,0,0,0,
3.620678, 10:39:35.181,0,0,0,0,0,0,0,0,0,
3.650739, 10:39:35.211,0,0,0,0,0,0,0,0,0,
3.679221, 10:39:35.239,0,0,0,0,0,0,0,0,0,
3.712276, 10:39:35.273,0,0,0,0,0,0,0,0,0,
3.744648, 10:39:35.306,0,0,0,0,0,0,0,0,0,
3.776014, 10:39:35.336,0,0,0,0,0,0,0,0,0,
3.806615, 10:39:35.368,0,0,0,0,0,0,0,0,0,
3.837276, 10:39:35.397,0,0,0,0,0,0,0,0,0,
3.86744, 10:39:35.428,0,0,0,0,0,0,0,0,0,
3.897279, 10:39:35.457,0,0,0,0,0,0,0,0,0,
3.926947, 10:39:35.488,0,0,0,0,0,0,0,0,0,
3.956838, 10:39:35.516,0,0,0,0,0,0,0,0,0,
3.985981, 10:39:35.547,0,0,0,0,0,0,0,0,0,
4.016228, 10:39:35.576,0,0,0,0,0,0,0,0,0,
4.043369, 10:39:35.605,0,0,0,0,0,0,0,0,0,
4.073521, 10:39:35.633,0,0,0,0,0,0,0,0,0,
4.101421, 10:39:35.662,0,0,0,0,0,0,0,0,0,
4.132458, 10:39:35.692,0,0,0,0,0,0,0,0,0,
4.159706, 10:39:35.720,0,0,0,0,0,0,0,0,0,
4.187911, 10:39:35.749,0,0,0,0,0,0,0,0,0,
4.220839, 10:39:35.781,0,0,0,0,0,0,0,0,0,
4.253268, 10:39:35.813,0,0,0,0,0,0,0,0,0,
4.286117, 10:39:35.847,0,0,0,0,0,0,0,0,0,
4.322603, 10:39:35.885,0,0,0,0,0,0,0,0,0,
4.362836, 10:39:35.923,0,0,0,0,0,0,0,0,0,
4.395917, 10:39:35.956,0,0,0,0,0,0,0,0,0,
4.424602, 10:39:35.986,0,0,0,0,0,0,0,0,0,
4.454566, 10:39:36.015,0,0,0,0,0,0,0,0,0,
4.483151, 10:39:36.043,0,0,0,0,0,0,0,0,0,
4.513073, 10:39:36.073,0,0,0,0,0,0,0,0,0,
4.541337, 10:39:36.102,0,0,0,0,0,0,0,0,0,
4.571323, 10:39:36.131,0,0,0,0,0,0,0,0,0,
4.60028, 10:39:36.161,0,0,0,0,0,0,0,0,0,
4.629652, 10:39:36.190,0,0,0,0,0,0,0,0,0,
4.656804, 10:39:36.217,0,0,0,0,0,0,0,0,0,
4.68557, 10:39:36.246,0,0,0,0,0,0,0,0,0,
4.714534, 10:39:36.274,0,0,0,0,0,0,0,0,0,
4.743575, 10:39:36.304,0,0,0,0,0,0,0,0,0,
4.774806, 10:39:36.334,0,0,0,0,0,0,0,0,0,
4.802147, 10:39:36.362,0,0,0,0,0,0,0,0,0,
4.832139, 10:39:36.391,0,0,0,0,0,0,0,0,0,
4.859895, 10:39:36.420,0,0,0,0,0,0,0,0,0,
4.887237, 10:39:36.448,0,0,0,0,0,0,0,0,0,
4.91777, 10:39:36.478,0,0,0,0,0,0,0,0,0,
4.945633, 10:39:36.507,0,0,0,0,0,0,0,0,0,
4.97728, 10:39:36.537,0,0,0,0,0,0,0,0,0,
5.005175, 10:39:36.567,0,0,0,0,0,0,0,0,0,
5.034737, 10:39:36.594,0,0,0,0,0,0,0,0,0,
5.063634, 10:39:36.625,0,0,0,0,0,0,0,0,0,
5.093288, 10:39:36.653,0,0,0,0,0,0,0,0,0,
5.121245, 10:39:36.681,0,0,0,0,0,0,0,0,0,
5.149525, 10:39:36.709,0,0,0,0,0,0,0,0,0,
5.180891, 10:39:36.741,0,0,0,0,0,0,0,0,0,
5.211496, 10:39:36.771,0,0,0,0,0,0,0,0,0,
5.2441, 10:39:36.806,0,0,0,0,0,0,0,0,0,
5.276139, 10:39:36.836,0,0,0,0,0,0,0,0,0,
5.30569, 10:39:36.867,0,0,0,0,0,0,0,0,0,
5.336862, 10:39:36.896,0,0,0,0,0,0,0,0,0,
5.366008, 10:39:36.926,0,0,0,0,0,0,0,0,0,
5.397553, 10:39:36.958,0,0,0,0,0,0,0,0,0,
5.432116, 10:39:36.994,0,0,0,0,0,0,0,0,0,
5.465788, 10:39:37.028,0,0,0,0,0,0,0,0,0,
5.507385, 10:39:37.069,0,0,0,0,0,0,0,0,0,
5.540622, 10:39:37.101,0,0,0,0,0,0,0,0,0,
5.573742, 10:39:37.133,0,0,0,0,0,0,0,0,0,
5.603819, 10:39:37.164,0,0,0,0,0,0,0,0,0,
5.634217, 10:39:37.194,0,0,0,0,0,0,0,0,0,
5.663272, 10:39:37.223,0,0,0,0,0,0,0,0,0,
5.693279, 10:39:37.253,0,0,0,0,0,0,0,0,0,
5.721911, 10:39:37.282,0,0,0,0,0,0,0,0,0,
5.752143, 10:39:37.311,0,0,0,0,0,0,0,0,0,
5.782849, 10:39:37.343,0,0,0,0,0,0,0,0,0,
5.814596, 10:39:37.375,0,0,0,0,0,0,0,0,0,
5.842901, 10:39:37.404,0,0,0,0,0,0,0,0,0,
5.874031, 10:39:37.433,0,0,0,0,0,0,0,0,0,
5.904284, 10:39:37.464,0,0,0,0,0,0,0,0,0,
5.934384, 10:39:37.494,0,0,0,0,0,0,0,0,0,
5.963627, 10:39:37.524,0,0,0,0,0,0,0,0,0,
5.994833, 10:39:37.554,0,0,0,0,0,0,0,0,0,
6.024101, 10:39:37.585,0,0,0,0,0,0,0,0,0,
6.053883, 10:39:37.613,0,0,0,0,0,0,0,0,0,
6.083811, 10:39:37.644,0,0,0,0,0,0,0,0,0,
6.114434, 10:39:37.676,0,0,0,0,0,0,0,0,0,
6.144955, 10:39:37.706,0,0,0,0,0,0,0,0,0,
6.175695, 10:39:37.737,0,0,0,0,0,0,0,0,0,
6.206243, 10:39:37.768,0,0,0,0,0,0,0,0,0,
6.243434, 10:39:37.804,0,0,0,0,0,0,0,0,0,
6.277896, 10:39:37.838,0,0,0,0,0,0,0,0,0,
6.308989, 10:39:37.869,0,0,0,0,0,0,0,0,0,
6.338107, 10:39:37.898,0,0,0,0,0,0,0,0,0,
6.367674, 10:39:37.928,0,0,0,0,0,0,0,0,0,
6.397447, 10:39:37.957,0,0,0,0,0,0,0,0,0,
6.426587, 10:39:37.987,0,0,0,0,0,0,0,0,0,
6.459495, 10:39:38.019,0,0,0,0,0,0,0,0,0,
6.487146, 10:39:38.048,0,0,0,0,0,0,0,0,0,
6.519926, 10:39:38.079,0,0,0,0,0,0,0,0,0,
6.549321, 10:39:38.110,0,0,0,0,0,0,0,0,0,
6.580649, 10:39:38.142,0,0,0,0,0,0,0,0,0,
6.616859, 10:39:38.178,0,0,0,0,0,0,0,0,0,
6.655515, 10:39:38.217,0,0,0,0,0,0,0,0,0,
6.690387, 10:39:38.251,0,0,0,0,0,0,0,0,0,
6.722134, 10:39:38.282,0,0,0,0,0,0,0,0,0,
6.752465, 10:39:38.311,0,0,0,0,0,0,0,0,0,
6.780516, 10:39:38.340,0,0,0,0,0,0,0,0,0,
6.808751, 10:39:38.368,0,0,0,0,0,0,0,0,0,
6.837545, 10:39:38.397,0,0,0,0,0,0,0,0,0,
6.866774, 10:39:38.428,0,0,0,0,0,0,0,0,0,
6.898841, 10:39:38.459,0,0,0,0,0,0,0,0,0,
6.932805, 10:39:38.494,0,0,0,0,0,0,0,0,0,
6.963952, 10:39:38.525,0,0,0,0,0,0,0,0,0,
6.996779, 10:39:38.557,0,0,0,0,0,0,0,0,0,
7.027243, 10:39:38.589,0,0,0,0,0,0,0,0,0,
7.057283, 10:39:38.618,0,0,0,0,0,0,0,0,0,
7.089972, 10:39:38.650,0,0,0,0,0,0,0,0,0,
7.123703, 10:39:38.684,0,0,0,0,0,0,0,0,0,
7.156918, 10:39:38.716,0,0,0,0,0,0,0,0,0,
7.187903, 10:39:38.748,0,0,0,0,0,0,0,0,0,
7.220264, 10:39:38.782,0,0,0,0,0,0,0,0,0,
7.25626, 10:39:38.816,0,0,0,0,0,0,0,0,0,
7.288537, 10:39:38.849,0,0,0,0,0,0,0,0,0,
7.321585, 10:39:38.883,0,0,0,0,0,0,0,0,0,
7.354905, 10:39:38.915,0,0,0,0,0,0,0,0,0,
7.384182, 10:39:38.945,0,0,0,0,0,0,0,0,0,
7.413506, 10:39:38.973,0,0,0,0,0,0,0,0,0,
7.441219, 10:39:39.002,0,0,0,0,0,0,0,0,0,
7.471381, 10:39:39.031,0,0,0,0,0,0,0,0,0,
7.500281, 10:39:39.061,0,0,0,0,0,0,0,0,0,
7.5297, 10:39:39.090,0,0,0,0,0,0,0,0,0,
7.561055, 10:39:39.121,0,0,0,0,0,0,0,0,0,
7.590375, 10:39:39.149,0,0,0,0,0,0,0,0,0,
7.619535, 10:39:39.179,0,0,0,0,0,0,0,0,0,
7.64876, 10:39:39.209,0,0,0,0,0,0,0,0,0,
7.677752, 10:39:39.238,0,0,0,0,0,0,0,0,0,
7.708721, 10:39:39.269,0,0,0,0,0,0,0,0,0,
7.742146, 10:39:39.304,0,0,0,0,0,0,0,0,0,
7.780326, 10:39:39.341,0,0,0,0,0,0,0,0,0,
7.821805, 10:39:39.383,0,0,0,0,0,0,0,0,0,
7.854075, 10:39:39.415,0,0,0,0,0,0,0,0,0,
7.886415, 10:39:39.448,0,0,0,0,0,0,0,0,0,
7.927141, 10:39:39.488,0,0,0,0,0,0,0,0,0,
7.959806, 10:39:39.521,0,0,0,0,0,0,0,0,0,
8.002578, 10:39:39.567,0,0,0,0,0,0,0,0,0,
8.049126, 10:39:39.611,0,0,0,0,0,0,0,0,0,
8.080111, 10:39:39.642,0,0,0,0,0,0,0,0,0,
8.117281, 10:39:39.678,0,0,0,0,0,0,0,0,0,
8.151966, 10:39:39.712,0,0,0,0,0,0,0,0,0,
8.188942, 10:39:39.750,0,0,0,0,0,0,0,0,0,
8.227212, 10:39:39.788,0,0,0,0,0,0,0,0,0,
8.259742, 10:39:39.819,0,0,0,0,0,0,0,0,0,
8.290319, 10:39:39.851,0,0,0,0,0,0,0,0,0,
8.322451, 10:39:39.883,0,0,0,0,0,0,0,0,0,
8.352869, 10:39:39.913,0,0,0,0,0,0,0,0,0,
8.385935, 10:39:39.947,0,0,0,0,0,0,0,0,0,
8.417192, 10:39:39.978,0,0,0,0,0,0,0,0,0,
8.453656, 10:39:40.014,0,0,0,0,0,0,0,0,0,
8.485929, 10:39:40.046,0,0,0,0,0,0,0,0,0,
8.517202, 10:39:40.077,0,0,0,0,0,0,0,0,0,
8.547483, 10:39:40.108,0,0,0,0,0,0,0,0,0,
8.57817, 10:39:40.139,0,0,0,0,0,0,0,0,0,
8.610337, 10:39:40.172,0,0,0,0,0,0,0,0,0,
8.644083, 10:39:40.206,0,0,0,0,0,0,0,0,0,
8.678583, 10:39:40.239,0,0,0,0,0,0,0,0,0,
8.710834, 10:39:40.273,0,0,0,0,0,0,0,0,0,
8.745057, 10:39:40.307,0,0,0,0,0,0,0,0,0,
8.777612, 10:39:40.338,0,0,0,0,0,0,0,0,0,
8.807311, 10:39:40.369,0,0,0,0,0,0,0,0,0,
8.837903, 10:39:40.397,0,0,0,0,0,0,0,0,0,
8.871363, 10:39:40.432,0,0,0,0,0,0,0,0,0,
8.910066, 10:39:40.472,0,0,0,0,0,0,0,0,0,
8.950432, 10:39:40.512,0,0,0,0,0,0,0,0,0,
8.999127, 10:39:40.560,0,0,0,0,0,0,0,0,0,
9.030786, 10:39:40.591,0,0,0,0,0,0,0,0,0,
9.062342, 10:39:40.623,0,0,0,0,0,0,0,0,0,
9.095718, 10:39:40.656,0,0,0,0,0,0,0,0,0,
9.138296, 10:39:40.700,0,0,0,0,0,0,0,0,0,
9.169301, 10:39:40.731,0,0,0,0,0,0,0,0,0,
9.199422, 10:39:40.760,0,0,0,0,0,0,0,0,0,
9.233459, 10:39:40.796,0,0,0,0,0,0,0,0,0,
9.266387, 10:39:40.828,0,0,0,0,0,0,0,0,0,
9.299191, 10:39:40.859,0,0,0,0,0,0,0,0,0,
9.330947, 10:39:40.891,0,0,0,0,0,0,0,0,0,
9.361377, 10:39:40.922,0,0,0,0,0,0,0,0,0,
9.39362, 10:39:40.953,0,0,0,0,0,0,0,0,0,
9.422913, 10:39:40.985,0,0,0,0,0,0,0,0,0,
9.454365, 10:39:41.014,0,0,0,0,0,0,0,0,0,
9.483633, 10:39:41.044,0,0,0,0,0,0,0,0,0,
9.514711, 10:39:41.074,0,0,0,0,0,0,0,0,0,
9.545884, 10:39:41.107,0,0,0,0,0,0,0,0,0,
9.577295, 10:39:41.137,0,0,0,0,0,0,0,0,0,
9.606694, 10:39:41.167,0,0,0,0,0,0,0,0,0,
9.638733, 10:39:41.199,0,0,0,0,0,0,0,0,0,
9.669875, 10:39:41.231,0,0,0,0,0,0,0,0,0,
9.700876, 10:39:41.263,0,0,0,0,0,0,0,0,0,
9.733375, 10:39:41.294,0,0,0,0,0,0,0,0,0,
9.766342, 10:39:41.328,0,0,0,0,0,0,0,0,0,
9.801294, 10:39:41.363,0,0,0,0,0,0,0,0,0,
9.833722, 10:39:41.394,0,0,0,0,0,0,0,0,0,
9.864533, 10:39:41.426,0,0,0,0,0,0,0,0,0,
9.894629, 10:39:41.455,0,0,0,0,0,0,0,0,0,
9.925481, 10:39:41.487,0,0,0,0,0,0,0,0,0,
9.955521, 10:39:41.517,0,0,0,0,0,0,0,0,0,
9.988192, 10:39:41.549,0,0,0,0,0,0,0,0,0,
10.02045, 10:39:41.582,0,0,0,0,0,0,0,0,0,
10.05112, 10:39:41.611,0,0,0,0,0,0,0,0,0,
10.08521, 10:39:41.646,0,0,0,0,0,0,0,0,0,
10.12139, 10:39:41.683,0,0,0,0,0,0,0,0,0,
10.16592, 10:39:41.727,0,0,0,0,0,0,0,0,0,
10.20466, 10:39:41.766,0,0,0,0,0,0,0,0,0,
10.23772, 10:39:41.798,0,0,0,0,0,0,0,0,0,
10.27011, 10:39:41.831,0,0,0,0,0,0,0,0,0,
10.30269, 10:39:41.863,0,0,0,0,0,0,0,0,0,
10.33816, 10:39:41.898,0,0,0,0,0,0,0,0,0,
10.3815, 10:39:41.943,0,0,0,0,0,0,0,0,0,
10.41518, 10:39:41.976,0,0,0,0,0,0,0,0,0,
10.44735, 10:39:42.008,0,0,0,0,0,0,0,0,0,
10.48036, 10:39:42.041,0,0,0,0,0,0,0,0,0,
10.51235, 10:39:42.072,0,0,0,0,0,0,0,0,0,
10.5429, 10:39:42.104,0,0,0,0,0,0,0,0,0,
10.57332, 10:39:42.133,0,0,0,0,0,0,0,0,0,
10.60475, 10:39:42.166,0,0,0,0,0,0,0,0,0,
10.63985, 10:39:42.199,0,0,0,0,0,0,0,0,0,
10.67206, 10:39:42.233,0,0,0,0,0,0,0,0,0,
10.70368, 10:39:42.265,0,0,0,0,0,0,0,0,0,
10.73665, 10:39:42.298,0,0,0,0,0,0,0,0,0,
10.76739, 10:39:42.329,0,0,0,0,0,0,0,0,0,
10.79847, 10:39:42.359,0,0,0,0,0,0,0,0,0,
10.82937, 10:39:42.391,0,0,0,0,0,0,0,0,0,
10.8704, 10:39:42.431,0,0,0,0,0,0,0,0,0,
10.90171, 10:39:42.464,0,0,0,0,0,0,0,0,0,
10.93335, 10:39:42.494,0,0,0,0,0,0,0,0,0,
10.96419, 10:39:42.526,0,0,0,0,0,0,0,0,0,
10.99611, 10:39:42.557,0,0,0,0,0,0,0,0,0,
11.02692, 10:39:42.588,0,0,0,0,0,0,0,0,0,
11.05769, 10:39:42.618,0,0,0,0,0,0,0,0,0,
11.09016, 10:39:42.652,0,0,0,0,0,0,0,0,0,
11.12172, 10:39:42.682,0,0,0,0,0,0,0,0,0,
11.15347, 10:39:42.714,0,0,0,0,0,0,0,0,0,
11.18461, 10:39:42.746,0,0,0,0,0,0,0,0,0,
11.21883, 10:39:42.780,0,0,0,0,0,0,0,0,0,
11.25524, 10:39:42.817,0,0,0,0,0,0,0,0,0,
11.29161, 10:39:42.853,0,0,0,0,0,0,0,0,0,
11.33793, 10:39:42.899,0,0,0,0,0,0,0,0,0,
11.3692, 10:39:42.929,0,0,0,0,0,0,0,0,0,
11.39921, 10:39:42.959,0,0,0,0,0,0,0,0,0,
11.43425, 10:39:42.995,0,0,0,0,0,0,0,0,0,
11.47419, 10:39:43.036,0,0,0,0,0,0,0,0,0,
11.5079, 10:39:43.069,0,0,0,0,0,0,0,0,0,
11.54125, 10:39:43.102,0,0,0,0,0,0,0,0,0,
11.57328, 10:39:43.133,0,0,0,0,0,0,0,0,0,
11.60354, 10:39:43.164,0,0,0,0,0,0,0,0,0,
11.6396, 10:39:43.199,0,0,0,0,0,0,0,0,0,
11.67045, 10:39:43.232,0,0,0,0,0,0,0,0,0,
11.70276, 10:39:43.264,0,0,0,0,0,0,0,0,0,
11.73488, 10:39:43.295,0,0,0,0,0,0,0,0,0,
11.76836, 10:39:43.330,0,0,0,0,0,0,0,0,0,
11.80132, 10:39:43.362,0,0,0,0,0,0,0,0,0,
11.83838, 10:39:43.399,0,0,0,0,0,0,0,0,0,
11.8692, 10:39:43.430,0,0,0,0,0,0,0,0,0,
11.90185, 10:39:43.462,0,0,0,0,0,0,0,0,0,
11.93287, 10:39:43.492,0,0,0,0,0,0,0,0,0,
11.96316, 10:39:43.523,0,0,0,0,0,0,0,0,0,
11.99973, 10:39:43.560,0,0,0,0,0,0,0,0,0,
12.03104, 10:39:43.592,0,0,0,0,0,0,0,0,0,
12.06362, 10:39:43.625,0,0,0,0,0,0,0,0,0,
12.09591, 10:39:43.656,0,0,0,0,0,0,0,0,0,
12.12666, 10:39:43.688,0,0,0,0,0,0,0,0,0,
12.15834, 10:39:43.718,0,0,0,0,0,0,0,0,0,
12.18763, 10:39:43.749,0,0,0,0,0,0,0,0,0,
12.22145, 10:39:43.783,0,0,0,0,0,0,0,0,0,
12.25581, 10:39:43.815,0,0,0,0,0,0,0,0,0,
12.28618, 10:39:43.847,0,0,0,0,0,0,0,0,0,
12.31777, 10:39:43.878,0,0,0,0,0,0,0,0,0,
12.34924, 10:39:43.910,0,0,0,0,0,0,0,0,0,
12.37901, 10:39:43.939,0,0,0,0,0,0,0,0,0,
12.41201, 10:39:43.973,0,0,0,0,0,0,0,0,0,
12.44939, 10:39:44.010,0,0,0,0,0,0,0,0,0,
12.49334, 10:39:44.055,0,0,0,0,0,0,0,0,0,
12.52721, 10:39:44.088,0,0,0,0,0,0,0,0,0,
12.56001, 10:39:44.121,0,0,0,0,0,0,0,0,0,
12.59654, 10:39:44.156,0,0,0,0,0,0,0,0,0,
12.62609, 10:39:44.188,0,0,0,0,0,0,0,0,0,
12.6586, 10:39:44.218,0,0,0,0,0,0,0,0,0,
12.68781, 10:39:44.249,0,0,0,0,0,0,0,0,0,
12.71877, 10:39:44.278,0,0,0,0,0,0,0,0,0,
12.75006, 10:39:44.311,0,0,0,0,0,0,0,0,0,
12.78234, 10:39:44.343,0,0,0,0,0,0,0,0,0,
12.81312, 10:39:44.373,0,0,0,0,0,0,0,0,0,
12.84221, 10:39:44.403,0,0,0,0,0,0,0,0,0,
12.8742, 10:39:44.433,0,0,0,0,0,0,0,0,0,
12.90488, 10:39:44.466,0,0,0,0,0,0,0,0,0,
12.9367, 10:39:44.496,0,0,0,0,0,0,0,0,0,
12.96617, 10:39:44.527,0,0,0,0,0,0,0,0,0,
12.9972, 10:39:44.557,0,0,0,0,0,0,0,0,0,
13.02663, 10:39:44.588,0,0,0,0,0,0,0,0,0,
13.05692, 10:39:44.617,0,0,0,0,0,0,0,0,0,
13.08825, 10:39:44.650,0,0,0,0,0,0,0,0,0,
13.12045, 10:39:44.681,0,0,0,0,0,0,0,0,0,
13.1519, 10:39:44.712,0,0,0,0,0,0,0,0,0,
13.1816, 10:39:44.743,0,0,0,0,0,0,0,0,0,
13.21162, 10:39:44.771,0,0,0,0,0,0,0,0,0,
13.24472, 10:39:44.806,0,0,0,0,0,0,0,0,0,
13.27636, 10:39:44.836,0,0,0,0,0,0,0,0,0,
13.30805, 10:39:44.869,0,0,0,0,0,0,0,0,0,
13.33936, 10:39:44.899,0,0,0,0,0,0,0,0,0,
13.36892, 10:39:44.929,0,0,0,0,0,0,0,0,0,
13.39895, 10:39:44.960,0,0,0,0,0,0,0,0,0,
13.43762, 10:39:44.999,0,0,0,0,0,0,0,0,0,
13.47049, 10:39:45.031,0,0,0,0,0,0,0,0,0,
13.50226, 10:39:45.064,0,0,0,0,0,0,0,0,0,
13.53684, 10:39:45.098,0,0,0,0,0,0,0,0,0,
13.57253, 10:39:45.135,0,0,0,0,0,0,0,0,0,
13.6134, 10:39:45.177,0,0,0,0,0,0,0,0,0,
13.65611, 10:39:45.218,0,0,0,0,0,0,0,0,0,
13.68961, 10:39:45.251,0,0,0,0,0,0,0,0,0,
13.72319, 10:39:45.284,0,0,0,0,0,0,0,0,0,
13.75476, 10:39:45.315,0,0,0,0,0,0,0,0,0,
13.79333, 10:39:45.355,0,0,0,0,0,0,0,0,0,
13.83145, 10:39:45.392,0,0,0,0,0,0,0,0,0,
13.86079, 10:39:45.423,0,0,0,0,0,0,0,0,0,
13.89059, 10:39:45.450,0,0,0,0,0,0,0,0,0,
13.92018, 10:39:45.482,0,0,0,0,0,0,0,0,0,
13.95195, 10:39:45.512,0,0,0,0,0,0,0,0,0,
13.98396, 10:39:45.544,0,0,0,0,0,0,0,0,0,
14.01381, 10:39:45.573,0,0,0,0,0,0,0,0,0,
14.04348, 10:39:45.604,0,0,0,0,0,0,0,0,0,
14.07927, 10:39:45.640,0,0,0,0,0,0,0,0,0,
14.10967, 10:39:45.670,0,0,0,0,0,0,0,0,0,
14.1402, 10:39:45.701,0,0,0,0,0,0,0,0,0,
14.16926, 10:39:45.729,0,0,0,0,0,0,0,0,0,
14.20245, 10:39:45.765,0,0,0,0,0,0,0,0,0,
14.23505, 10:39:45.795,0,0,0,0,0,0,0,0,0,
14.26932, 10:39:45.829,0,0,0,0,0,0,0,0,0,
14.29836, 10:39:45.858,0,0,0,0,0,0,0,0,0,
14.32715, 10:39:45.889,0,0,0,0,0,0,0,0,0,
14.36038, 10:39:45.921,0,0,0,0,0,0,0,0,0,
14.39208, 10:39:45.951,0,0,0,0,0,0,0,0,0,
14.42412, 10:39:45.985,0,0,0,0,0,0,0,0,0,
14.45371, 10:39:46.014,0,0,0,0,0,0,0,0,0,
14.48438, 10:39:46.045,0,0,0,0,0,0,0,0,0,
14.51538, 10:39:46.076,0,0,0,0,0,0,0,0,0,
14.54536, 10:39:46.107,0,0,0,0,0,0,0,0,0,
14.57603, 10:39:46.136,0,0,0,0,0,0,0,0,0,
14.60555, 10:39:46.166,0,0,0,0,0,0,0,0,0,
14.63772, 10:39:46.197,0,0,0,0,0,0,0,0,0,
14.66694, 10:39:46.228,0,0,0,0,0,0,0,0,0,
14.6989, 10:39:46.260,0,0,0,0,0,0,0,0,0,
14.73366, 10:39:46.295,0,0,0,0,0,0,0,0,0,
14.76958, 10:39:46.332,0,0,0,0,0,0,0,0,0,
14.81048, 10:39:46.372,0,0,0,0,0,0,0,0,0,
14.84456, 10:39:46.406,0,0,0,0,0,0,0,0,0,
14.87793, 10:39:46.438,0,0,0,0,0,0,0,0,0,
14.90821, 10:39:46.469,0,0,0,0,0,0,0,0,0,
14.94701, 10:39:46.507,0,0,0,0,0,0,0,0,0,
14.97735, 10:39:46.537,0,0,0,0,0,0,0,0,0,
15.00779, 10:39:46.569,0,0,0,0,0,0,0,0,0,
15.03892, 10:39:46.598,0,0,0,0,0,0,0,0,0,
15.07069, 10:39:46.631,0,0,0,0,0,0,0,0,0,
15.10177, 10:39:46.663,0,0,0,0,0,0,0,0,0,
15.13155, 10:39:46.691,0,0,0,0,0,0,0,0,0,
15.16077, 10:39:46.721,0,0,0,0,0,0,0,0,0,
15.19322, 10:39:46.753,0,0,0,0,0,0,0,0,0,
15.22566, 10:39:46.788,0,0,0,0,0,0,0,0,0,
15.26142, 10:39:46.823,0,0,0,0,0,0,0,0,0,
15.29364, 10:39:46.854,0,0,0,0,0,0,0,0,0,
15.32374, 10:39:46.885,0,0,0,0,0,0,0,0,0,
15.3568, 10:39:46.917,0,0,0,0,0,0,0,0,0,
15.38645, 10:39:46.947,0,0,0,0,0,0,0,0,0,
15.41765, 10:39:46.978,0,0,0,0,0,0,0,0,0,
15.44641, 10:39:47.008,0,0,0,0,0,0,0,0,0,
15.48, 10:39:47.040,0,0,0,0,0,0,0,0,0,
15.51355, 10:39:47.075,0,0,0,0,0,0,0,0,0,
15.54507, 10:39:47.106,0,0,0,0,0,0,0,0,0,
15.57448, 10:39:47.135,0,0,0,0,0,0,0,0,0,
15.60392, 10:39:47.165,0,0,0,0,0,0,0,0,0,
15.63581, 10:39:47.195,0,0,0,0,0,0,0,0,0,
15.66497, 10:39:47.226,0,0,0,0,0,0,0,0,0,
15.69606, 10:39:47.257,0,0,0,0,0,0,0,0,0,
15.72864, 10:39:47.291,0,0,0,0,0,0,0,0,0,
15.75807, 10:39:47.319,0,0,0,0,0,0,0,0,0,
15.79004, 10:39:47.350,0,0,0,0,0,0,0,0,0,
15.82234, 10:39:47.383,0,0,0,0,0,0,0,0,0,
15.85471, 10:39:47.415,0,0,0,0,0,0,0,0,0,
15.89164, 10:39:47.454,0,0,0,0,0,0,0,0,0,
15.92707, 10:39:47.489,0,0,0,0,0,0,0,0,0,
15.97495, 10:39:47.537,0,0,0,0,0,0,0,0,0,
16.00913, 10:39:47.570,0,0,0,0,0,0,0,0,0,
16.03988, 10:39:47.599,0,0,0,0,0,0,0,0,0,
16.07017, 10:39:47.630,0,0,0,0,0,0,0,0,0,
16.1079, 10:39:47.669,0,0,0,0,0,0,0,0,0,
16.14073, 10:39:47.701,0,0,0,0,0,0,0,0,0,
16.17496, 10:39:47.735,0,0,0,0,0,0,0,0,0,
16.20543, 10:39:47.766,0,0,0,0,0,0,0,0,0,
16.23997, 10:39:47.801,0,0,0,0,0,0,0,0,0,
16.27253, 10:39:47.833,0,0,0,0,0,0,0,0,0,
16.3028, 10:39:47.864,0,0,0,0,0,0,0,0,0,
16.33359, 10:39:47.894,0,0,0,0,0,0,0,0,0,
16.36341, 10:39:47.924,0,0,0,0,0,0,0,0,0,
16.39617, 10:39:47.956,0,0,0,0,0,0,0,0,0,
16.42674, 10:39:47.987,0,0,0,0,0,0,0,0,0,
16.45647, 10:39:48.016,0,0,0,0,0,0,0,0,0,
16.48646, 10:39:48.048,0,0,0,0,0,0,0,0,0,
16.51882, 10:39:48.078,0,0,0,0,0,0,0,0,0,
16.54856, 10:39:48.109,0,0,0,0,0,0,0,0,0,
16.5774, 10:39:48.138,0,0,0,0,0,0,0,0,0,
16.61349, 10:39:48.175,0,0,0,0,0,0,0,0,0,
16.64468, 10:39:48.206,0,0,0,0,0,0,0,0,0,
16.67575, 10:39:48.236,0,0,0,0,0,0,0,0,0,
16.70502, 10:39:48.266,0,0,0,0,0,0,0,0,0,
16.73465, 10:39:48.295,0,0,0,0,0,0,0,0,0,
16.76611, 10:39:48.327,0,0,0,0,0,0,0,0,0,
16.79649, 10:39:48.357,0,0,0,0,0,0,0,0,0,
16.82918, 10:39:48.390,0,0,0,0,0,0,0,0,0,
16.86016, 10:39:48.421,0,0,0,0,0,0,0,0,0,
16.8901, 10:39:48.450,0,0,0,0,0,0,0,0,0,
16.92049, 10:39:48.482,0,0,0,0,0,0,0,0,0,
16.95247, 10:39:48.512,0,0,0,0,0,0,0,0,0,
16.9828, 10:39:48.544,0,0,0,0,0,0,0,0,0,
17.01302, 10:39:48.573,0,0,0,0,0,0,0,0,0,
17.05129, 10:39:48.613,0,0,0,0,0,0,0,0,0,
17.0927, 10:39:48.656,0,0,0,0,0,0,0,0,0,
17.13474, 10:39:48.697,0,0,0,0,0,0,0,0,0,
17.16759, 10:39:48.728,0,0,0,0,0,0,0,0,0,
17.20032, 10:39:48.761,0,0,0,0,0,0,0,0,0,
17.23306, 10:39:48.794,0,0,0,0,0,0,0,0,0,
17.26667, 10:39:48.828,0,0,0,0,0,0,0,0,0,
17.29754, 10:39:48.857,0,0,0,0,0,0,0,0,0,
17.32624, 10:39:48.887,0,0,0,0,0,0,0,0,0,
17.35548, 10:39:48.915,0,0,0,0,0,0,0,0,0,
17.38564, 10:39:48.947,0,0,0,0,0,0,0,0,0,
17.41711, 10:39:48.977,0,0,0,0,0,0,0,0,0,
17.4471, 10:39:49.008,0,0,0,0,0,0,0,0,0,
17.48077, 10:39:49.041,0,0,0,0,0,0,0,0,0,
17.51063, 10:39:49.070,0,0,0,0,0,0,0,0,0,
17.54163, 10:39:49.102,0,0,0,0,0,0,0,0,0,
17.57214, 10:39:49.132,0,0,0,0,0,0,0,0,0,
17.60838, 10:39:49.169,0,0,0,0,0,0,0,0,0,
17.64898, 10:39:49.210,0,0,0,0,0,0,0,0,0,
17.6811, 10:39:49.242,0,0,0,0,0,0,0,0,0,
17.71333, 10:39:49.274,0,0,0,0,0,0,0,0,0,
17.7443, 10:39:49.306,0,0,0,0,0,0,0,0,0,
17.77535, 10:39:49.337,0,0,0,0,0,0,0,0,0,
17.80567, 10:39:49.366,0,0,0,0,0,0,0,0,0,
17.83624, 10:39:49.396,0,0,0,0,0,0,0,0,0,
17.86605, 10:39:49.428,0,0,0,0,0,0,0,0,0,
17.89789, 10:39:49.458,0,0,0,0,0,0,0,0,0,
17.9287, 10:39:49.490,0,0,0,0,0,0,0,0,0,
17.95911, 10:39:49.519,0,0,0,0,0,0,0,0,0,
17.98846, 10:39:49.550,0,0,0,0,0,0,0,0,0,
18.01939, 10:39:49.579,0,0,0,0,0,0,0,0,0,
18.0514, 10:39:49.612,0,0,0,0,0,0,0,0,0,
18.08226, 10:39:49.643,0,0,0,0,0,0,0,0,0,
18.1158, 10:39:49.676,0,0,0,0,0,0,0,0,0,
18.14476, 10:39:49.706,0,0,0,0,0,0,0,0,0,
18.17521, 10:39:49.735,0,0,0,0,0,0,0,0,0,
18.20871, 10:39:49.771,0,0,0,0,0,0,0,0,0,
18.24714, 10:39:49.810,0,0,0,0,0,0,0,0,0,
18.2954, 10:39:49.857,0,0,0,0,0,0,0,0,0,
18.32907, 10:39:49.891,0,0,0,0,0,0,0,0,0,
18.36251, 10:39:49.923,0,0,0,0,0,0,0,0,0,
18.39576, 10:39:49.956,0,0,0,0,0,0,0,0,0,
18.42591, 10:39:49.988,0,0,0,0,0,0,0,0,0,
18.45689, 10:39:50.018,0,0,0,0,0,0,0,0,0,
18.48582, 10:39:50.047,0,0,0,0,0,0,0,0,0,
18.51952, 10:39:50.079,0,0,0,0,0,0,0,0,0,
18.55299, 10:39:50.113,0,0,0,0,0,0,0,0,0,
18.58433, 10:39:50.145,0,0,0,0,0,0,0,0,0,
18.61474, 10:39:50.175,0,0,0,0,0,0,0,0,0,
18.64394, 10:39:50.205,0,0,0,0,0,0,0,0,0,
18.67509, 10:39:50.236,0,0,0,0,0,0,0,0,0,
18.70588, 10:39:50.266,0,0,0,0,0,0,0,0,0,
18.74092, 10:39:50.301,0,0,0,0,0,0,0,0,0,
18.77469, 10:39:50.335,0,0,0,0,0,0,0,0,0,
18.8045, 10:39:50.365,0,0,0,0,0,0,0,0,0,
18.83663, 10:39:50.397,0,0,0,0,0,0,0,0,0,
18.86569, 10:39:50.427,0,0,0,0,0,0,0,0,0,
18.8963, 10:39:50.456,0,0,0,0,0,0,0,0,0,
18.92662, 10:39:50.488,0,0,0,0,0,0,0,0,0,
18.96563, 10:39:50.527,0,0,0,0,0,0,0,0,0,
19.00174, 10:39:50.562,0,0,0,0,0,0,0,0,0,
19.0329, 10:39:50.593,0,0,0,0,0,0,0,0,0,
19.06273, 10:39:50.623,0,0,0,0,0,0,0,0,0,
19.094, 10:39:50.654,0,0,0,0,0,0,0,0,0,
19.13242, 10:39:50.694,0,0,0,0,0,0,0,0,0,
19.16421, 10:39:50.726,0,0,0,0,0,0,0,0,0,
19.19656, 10:39:50.757,0,0,0,0,0,0,0,0,0,
19.22979, 10:39:50.791,0,0,0,0,0,0,0,0,0,
19.26325, 10:39:50.824,0,0,0,0,0,0,0,0,0,
19.29377, 10:39:50.853,0,0,0,0,0,0,0,0,0,
19.32278, 10:39:50.884,0,0,0,0,0,0,0,0,0,
19.35727, 10:39:50.918,0,0,0,0,0,0,0,0,0,
19.3929, 10:39:50.955,0,0,0,0,0,0,0,0,0,
19.43736, 10:39:50.999,0,0,0,0,0,0,0,0,0,
19.47319, 10:39:51.034,0,0,0,0,0,0,0,0,0,
19.50809, 10:39:51.069,0,0,0,0,0,0,0,0,0,
19.53841, 10:39:51.099,0,0,0,0,0,0,0,0,0,
19.56801, 10:39:51.130,0,0,0,0,0,0,0,0,0,
19.59915, 10:39:51.159,0,0,0,0,0,0,0,0,0,
19.63109, 10:39:51.192,0,0,0,0,0,0,0,0,0,
19.66204, 10:39:51.223,0,0,0,0,0,0,0,0,0,
19.69539, 10:39:51.255,0,0,0,0,0,0,0,0,0,
19.72455, 10:39:51.286,0,0,0,0,0,0,0,0,0,
19.7569, 10:39:51.317,0,0,0,0,0,0,0,0,0,
19.78609, 10:39:51.347,0,0,0,0,0,0,0,0,0,
19.81754, 10:39:51.378,0,0,0,0,0,0,0,0,0,
19.84709, 10:39:51.408,0,0,0,0,0,0,0,0,0,
19.87962, 10:39:51.440,0,0,0,0,0,0,0,0,0,
19.91103, 10:39:51.472,0,0,0,0,0,0,0,0,0,
19.94225, 10:39:51.503,0,0,0,0,0,0,0,0,0,
19.97335, 10:39:51.533,0,0,0,0,0,0,0,0,0,
20.00313, 10:39:51.564,0,0,0,0,0,0,0,0,0,
20.03343, 10:39:51.593,0,0,0,0,0,0,0,0,0,
20.0654, 10:39:51.627,0,0,0,0,0,0,0,0,0,
20.09577, 10:39:51.656,0,0,0,0,0,0,0,0,0,
20.1298, 10:39:51.691,0,0,0,0,0,0,0,0,0,
20.16142, 10:39:51.723,0,0,0,0,0,0,0,0,0,
20.19309, 10:39:51.753,0,0,0,0,0,0,0,0,0,
20.22505, 10:39:51.787,0,0,0,0,0,0,0,0,0,
20.25921, 10:39:51.819,0,0,0,0,0,0,0,0,0,
20.29015, 10:39:51.851,0,0,0,0,0,0,0,0,0,
20.3244, 10:39:51.885,0,0,0,0,0,0,0,0,0,
20.35636, 10:39:51.918,0,0,0,0,0,0,0,0,0,
20.38694, 10:39:51.948,0,0,0,0,0,0,0,0,0,
20.41905, 10:39:51.978,0,0,0,0,0,0,0,0,0,
20.44864, 10:39:52.009,0,0,0,0,0,0,0,0,0,
20.4788, 10:39:52.039,0,0,0,0,0,0,0,0,0,
20.50895, 10:39:52.071,0,0,0,0,0,0,0,0,0,
20.54897, 10:39:52.110,0,0,0,0,0,0,0,0,0,
20.58817, 10:39:52.151,0,0,0,0,0,0,0,0,0,
20.62439, 10:39:52.186,0,0,0,0,0,0,0,0,0,
20.6578, 10:39:52.219,0,0,0,0,0,0,0,0,0,
20.68954, 10:39:52.250,0,0,0,0,0,0,0,0,0,
20.71948, 10:39:52.279,0,0,0,0,0,0,0,0,0,
20.74853, 10:39:52.309,0,0,0,0,0,0,0,0,0,
20.78241, 10:39:52.342,0,0,0,0,0,0,0,0,0,
20.81365, 10:39:52.374,0,0,0,0,0,0,0,0,0,
20.84315, 10:39:52.404,0,0,0,0,0,0,0,0,0,
20.8755, 10:39:52.436,0,0,0,0,0,0,0,0,0,
20.90701, 10:39:52.469,0,0,0,0,0,0,0,0,0,
20.9405, 10:39:52.501,0,0,0,0,0,0,0,0,0,
20.97291, 10:39:52.534,0,0,0,0,0,0,0,0,0,
21.00649, 10:39:52.568,0,0,0,0,0,0,0,0,0,
21.03938, 10:39:52.600,0,0,0,0,0,0,0,0,0,
21.07082, 10:39:52.633,0,0,0,0,0,0,0,0,0,
21.10304, 10:39:52.665,0,0,0,0,0,0,0,0,0,
21.13449, 10:39:52.694,0,0,0,0,0,0,0,0,0,
21.16563, 10:39:52.727,0,0,0,0,0,0,0,0,0,
21.19608, 10:39:52.756,0,0,0,0,0,0,0,0,0,
21.22998, 10:39:52.792,0,0,0,0,0,0,0,0,0,
21.26489, 10:39:52.827,0,0,0,0,0,0,0,0,0,
21.29735, 10:39:52.858,0,0,0,0,0,0,0,0,0,
21.32874, 10:39:52.891,0,0,0,0,0,0,0,0,0,
21.36035, 10:39:52.922,0,0,0,0,0,0,0,0,0,
21.394, 10:39:52.955,0,0,0,0,0,0,0,0,0,
21.42571, 10:39:52.988,0,0,0,0,0,0,0,0,0,
21.45993, 10:39:53.020,0,0,0,0,0,0,0,0,0,
21.49117, 10:39:53.052,0,0,0,0,0,0,0,0,0,
21.52298, 10:39:53.085,0,0,0,0,0,0,0,0,0,
21.5553, 10:39:53.117,0,0,0,0,0,0,0,0,0,
21.58708, 10:39:53.148,0,0,0,0,0,0,0,0,0,
21.61957, 10:39:53.180,0,0,0,0,0,0,0,0,0,
21.65097, 10:39:53.212,0,0,0,0,0,0,0,0,0,
21.68763, 10:39:53.249,0,0,0,0,0,0,0,0,0,
21.72589, 10:39:53.288,0,0,0,0,0,0,0,0,0,
21.77182, 10:39:53.333,0,0,0,0,0,0,0,0,0,
21.80523, 10:39:53.367,0,0,0,0,0,0,0,0,0,
21.83747, 10:39:53.397,0,0,0,0,0,0,0,0,0,
21.86788, 10:39:53.428,0,0,0,0,0,0,0,0,0,
21.90454, 10:39:53.465,0,0,0,0,0,0,0,0,0,
21.93394, 10:39:53.493,0,0,0,0,0,0,0,0,0,
21.96513, 10:39:53.526,0,0,0,0,0,0,0,0,0,
21.99541, 10:39:53.556,0,0,0,0,0,0,0,0,0,
22.02427, 10:39:53.585,0,0,0,0,0,0,0,0,0,
22.05534, 10:39:53.615,0,0,0,0,0,0,0,0,0,
22.08495, 10:39:53.646,0,0,0,0,0,0,0,0,0,
22.11626, 10:39:53.676,0,0,0,0,0,0,0,0,0,
22.14644, 10:39:53.707,0,0,0,0,0,0,0,0,0,
22.17599, 10:39:53.736,0,0,0,0,0,0,0,0,0,
22.20598, 10:39:53.768,0,0,0,0,0,0,0,0,0,
22.24004, 10:39:53.801,0,0,0,0,0,0,0,0,0,
22.27302, 10:39:53.833,0,0,0,0,0,0,0,0,0,
22.30271, 10:39:53.864,0,0,0,0,0,0,0,0,0,
22.33461, 10:39:53.895,0,0,0,0,0,0,0,0,0,
22.36427, 10:39:53.926,0,0,0,0,0,0,0,0,0,
22.39502, 10:39:53.954,0,0,0,0,0,0,0,0,0,
22.4244, 10:39:53.985,0,0,0,0,0,0,0,0,0,
22.45963, 10:39:54.019,0,0,0,0,0,0,0,0,0,
22.48776, 10:39:54.049,0,0,0,0,0,0,0,0,0,
22.5197, 10:39:54.079,0,0,0,0,0,0,0,0,0,
22.55161, 10:39:54.112,0,0,0,0,0,0,0,0,0,
22.58071, 10:39:54.141,0,0,0,0,0,0,0,0,0,
22.61104, 10:39:54.171,0,0,0,0,0,0,0,0,0,
22.64024, 10:39:54.201,0,0,0,0,0,0,0,0,0,
22.66962, 10:39:54.231,0,0,0,0,0,0,0,0,0,
22.70014, 10:39:54.261,0,0,0,0,0,0,0,0,0,
22.73076, 10:39:54.291,0,0,0,0,0,0,0,0,0,
22.76256, 10:39:54.323,0,0,0,0,0,0,0,0,0,
22.79353, 10:39:54.353,0,0,0,0,0,0,0,0,0,
22.82227, 10:39:54.383,0,0,0,0,0,0,0,0,0,
22.85855, 10:39:54.419,0,0,0,0,0,0,0,0,0,
22.89464, 10:39:54.457,0,0,0,0,0,0,0,0,0,
22.93674, 10:39:54.498,0,0,0,0,0,0,0,0,0,
22.97014, 10:39:54.531,0,0,0,0,0,0,0,0,0,
23.0036, 10:39:54.564,0,0,0,0,0,0,0,0,0,
23.04328, 10:39:54.605,0,0,0,0,0,0,0,0,0,
23.07512, 10:39:54.635,0,0,0,0,0,0,0,0,0,
23.10427, 10:39:54.664,0,0,0,0,0,0,0,0,0,
23.13466, 10:39:54.695,0,0,0,0,0,0,0,0,0,
23.16578, 10:39:54.726,0,0,0,0,0,0,0,0,0,
23.19692, 10:39:54.757,0,0,0,0,0,0,0,0,0,
23.2265, 10:39:54.788,0,0,0,0,0,0,0,0,0,
23.26116, 10:39:54.822,0,0,0,0,0,0,0,0,0,
23.29189, 10:39:54.852,0,0,0,0,0,0,0,0,0,
23.32082, 10:39:54.882,0,0,0,0,0,0,0,0,0,
23.35267, 10:39:54.913,0,0,0,0,0,0,0,0,0,
23.38266, 10:39:54.943,0,0,0,0,0,0,0,0,0,
23.4183, 10:39:54.979,0,0,0,0,0,0,0,0,0,
23.44927, 10:39:55.010,0,0,0,0,0,0,0,0,0,
23.4801, 10:39:55.042,0,0,0,0,0,0,0,0,0,
23.51095, 10:39:55.072,0,0,0,0,0,0,0,0,0,
23.54273, 10:39:55.103,0,0,0,0,0,0,0,0,0,
23.57358, 10:39:55.133,0,0,0,0,0,0,0,0,0,
23.60363, 10:39:55.164,0,0,0,0,0,0,0,0,0,
23.6359, 10:39:55.196,0,0,0,0,0,0,0,0,0,
23.66574, 10:39:55.227,0,0,0,0,0,0,0,0,0,
23.69757, 10:39:55.258,0,0,0,0,0,0,0,0,0,
23.72792, 10:39:55.289,0,0,0,0,0,0,0,0,0,
23.7614, 10:39:55.322,0,0,0,0,0,0,0,0,0,
23.79242, 10:39:55.352,0,0,0,0,0,0,0,0,0,
23.82187, 10:39:55.383,0,0,0,0,0,0,0,0,0,
23.85465, 10:39:55.415,0,0,0,0,0,0,0,0,0,
23.8863, 10:39:55.447,0,0,0,0,0,0,0,0,0,
23.91682, 10:39:55.476,0,0,0,0,0,0,0,0,0,
23.94571, 10:39:55.507,0,0,0,0,0,0,0,0,0,
23.9767, 10:39:55.537,0,0,0,0,0,0,0,0,0,
24.01537, 10:39:55.577,0,0,0,0,0,0,0,0,0,
24.05369, 10:39:55.616,0,0,0,0,0,0,0,0,0,
24.09899, 10:39:55.660,0,0,0,0,0,0,0,0,0,
24.13412, 10:39:55.695,0,0,0,0,0,0,0,0,0,
24.16498, 10:39:55.726,0,0,0,0,0,0,0,0,0,
24.19618, 10:39:55.757,0,0,0,0,0,0,0,0,0,
24.22734, 10:39:55.789,0,0,0,0,0,0,0,0,0,
24.26142, 10:39:55.823,0,0,0,0,0,0,0,0,0,
24.29417, 10:39:55.854,0,0,0,0,0,0,0,0,0,
24.33635, 10:39:55.898,0,0,0,0,0,0,0,0,0,
24.36758, 10:39:55.928,0,0,0,0,0,0,0,0,0,
24.39935, 10:39:55.959,0,0,0,0,0,0,0,0,0,
24.43107, 10:39:55.993,0,0,0,0,0,0,0,0,0,
24.46966, 10:39:56.031,0,0,0,0,0,0,0,0,0,
24.50619, 10:39:56.067,0,0,0,0,0,0,0,0,0,
24.54012, 10:39:56.102,0,0,0,0,0,0,0,0,0,
24.57148, 10:39:56.131,0,0,0,0,0,0,0,0,0,
24.60281, 10:39:56.164,0,0,0,0,0,0,0,0,0,
24.63561, 10:39:56.196,0,0,0,0,0,0,0,0,0,
24.66677, 10:39:56.229,0,0,0,0,0,0,0,0,0,
24.69973, 10:39:56.260,0,0,0,0,0,0,0,0,0,
24.73362, 10:39:56.295,0,0,0,0,0,0,0,0,0,
24.76505, 10:39:56.327,0,0,0,0,0,0,0,0,0,
24.79716, 10:39:56.357,0,0,0,0,0,0,0,0,0,
24.82878, 10:39:56.390,0,0,0,0,0,0,0,0,0,
24.86409, 10:39:56.426,0,0,0,0,0,0,0,0,0,
24.89653, 10:39:56.457,0,0,0,0,0,0,0,0,0,
24.92719, 10:39:56.489,0,0,0,0,0,0,0,0,0,
24.96326, 10:39:56.525,0,0,0,0,0,0,0,0,0,
24.99648, 10:39:56.557,0,0,0,0,0,0,0,0,0,
25.02688, 10:39:56.588,0,0,0,0,0,0,0,0,0,
25.05839, 10:39:56.619,0,0,0,0,0,0,0,0,0,
25.08841, 10:39:56.651,0,0,0,0,0,0,0,0,0,
25.12086, 10:39:56.683,0,0,0,0,0,0,0,0,0,
25.1528, 10:39:56.713,0,0,0,0,0,0,0,0,0,
25.18789, 10:39:56.750,0,0,0,0,0,0,0,0,0,
25.22411, 10:39:56.786,0,0,0,0,0,0,0,0,0,
25.27113, 10:39:56.833,0,0,0,0,0,0,0,0,0,
25.30665, 10:39:56.868,0,0,0,0,0,0,0,0,0,
25.33998, 10:39:56.899,0,0,0,0,0,0,0,0,0,
25.36825, 10:39:56.929,0,0,0,0,0,0,0,0,0,
25.40764, 10:39:56.969,0,0,0,0,0,0,0,0,0,
25.44602, 10:39:57.008,0,0,0,0,0,0,0,0,0,
25.47701, 10:39:57.037,0,0,0,0,0,0,0,0,0,
25.50766, 10:39:57.069,0,0,0,0,0,0,0,0,0,
25.53987, 10:39:57.100,0,0,0,0,0,0,0,0,0,
25.57067, 10:39:57.132,0,0,0,0,0,0,0,0,0,
25.60495, 10:39:57.167,0,0,0,0,0,0,0,0,0,
25.63586, 10:39:57.196,0,0,0,0,0,0,0,0,0,
25.66721, 10:39:57.228,0,0,0,0,0,0,0,0,0,
25.6981, 10:39:57.259,0,0,0,0,0,0,0,0,0,
25.73119, 10:39:57.292,0,0,0,0,0,0,0,0,0,
25.76318, 10:39:57.324,0,0,0,0,0,0,0,0,0,
25.79393, 10:39:57.354,0,0,0,0,0,0,0,0,0,
25.82593, 10:39:57.387,0,0,0,0,0,0,0,0,0,
25.85654, 10:39:57.417,0,0,0,0,0,0,0,0,0,
25.88762, 10:39:57.449,0,0,0,0,0,0,0,0,0,
25.91875, 10:39:57.479,0,0,0,0,0,0,0,0,0,
25.94928, 10:39:57.510,0,0,0,0,0,0,0,0,0,
25.98686, 10:39:57.548,0,0,0,0,0,0,0,0,0,
26.01823, 10:39:57.579,0,0,0,0,0,0,0,0,0,
26.05273, 10:39:57.613,0,0,0,0,0,0,0,0,0,
26.08455, 10:39:57.645,0,0,0,0,0,0,0,0,0,
26.1152, 10:39:57.675,0,0,0,0,0,0,0,0,0,
26.14867, 10:39:57.710,0,0,0,0,0,0,0,0,0,
26.17992, 10:39:57.741,0,0,0,0,0,0,0,0,0,
26.21274, 10:39:57.774,0,0,0,0,0,0,0,0,0,
26.24878, 10:39:57.810,0,0,0,0,0,0,0,0,0,
26.28317, 10:39:57.845,0,0,0,0,0,0,0,0,0,
26.31504, 10:39:57.875,0,0,0,0,0,0,0,0,0,
26.35065, 10:39:57.913,0,0,0,0,0,0,0,0,0,
26.38938, 10:39:57.951,0,0,0,0,0,0,0,0,0,
26.43337, 10:39:57.996,0,0,0,0,0,0,0,0,0,
26.46692, 10:39:58.029,0,0,0,0,0,0,0,0,0,
26.50418, 10:39:58.066,0,0,0,0,0,0,0,0,0,
26.53691, 10:39:58.097,0,0,0,0,0,0,0,0,0,
26.56745, 10:39:58.128,0,0,0,0,0,0,0,0,0,
26.59915, 10:39:58.160,0,0,0,0,0,0,0,0,0,
26.63018, 10:39:58.190,0,0,0,0,0,0,0,0,0,
26.66135, 10:39:58.222,0,0,0,0,0,0,0,0,0,
26.69252, 10:39:58.252,0,0,0,0,0,0,0,0,0,
26.72695, 10:39:58.288,0,0,0,0,0,0,0,0,0,
26.75718, 10:39:58.317,0,0,0,0,0,0,0,0,0,
26.78845, 10:39:58.350,0,0,0,0,0,0,0,0,0,
26.82199, 10:39:58.383,0,0,0,0,0,0,0,0,0,
26.85524, 10:39:58.416,0,0,0,0,0,0,0,0,0,
26.89751, 10:39:58.459,0,0,0,0,0,0,0,0,0,
26.93435, 10:39:58.496,0,0,0,0,0,0,0,0,0,
26.96532, 10:39:58.527,0,0,0,0,0,0,0,0,0,
26.9966, 10:39:58.557,0,0,0,0,0,0,0,0,0,
27.02997, 10:39:58.591,0,0,0,0,0,0,0,0,0,
27.06194, 10:39:58.623,0,0,0,0,0,0,0,0,0,
27.09364, 10:39:58.654,0,0,0,0,0,0,0,0,0,
27.12446, 10:39:58.686,0,0,0,0,0,0,0,0,0,
27.15967, 10:39:58.720,0,0,0,0,0,0,0,0,0,
27.19123, 10:39:58.753,0,0,0,0,0,0,0,0,0,
27.22507, 10:39:58.787,0,0,0,0,0,0,0,0,0,
27.25843, 10:39:58.820,0,0,0,0,0,0,0,0,0,
27.29094, 10:39:58.852,0,0,0,0,0,0,0,0,0,
27.32237, 10:39:58.884,0,0,0,0,0,0,0,0,0,
27.35276, 10:39:58.913,0,0,0,0,0,0,0,0,0,
27.38556, 10:39:58.946,0,0,0,0,0,0,0,0,0,
27.41564, 10:39:58.975,0,0,0,0,0,0,0,0,0,
27.44413, 10:39:59.006,0,0,0,0,0,0,0,0,0,
27.47411, 10:39:59.034,0,0,0,0,0,0,0,0,0,
27.51106, 10:39:59.073,0,0,0,0,0,0,0,0,0,
27.54876, 10:39:59.111,0,0,0,0,0,0,0,0,0,
27.5904, 10:39:59.151,0,0,0,0,0,0,0,0,0,
27.62291, 10:39:59.184,0,0,0,0,0,0,0,0,0,
27.65503, 10:39:59.215,0,0,0,0,0,0,0,0,0,
27.68479, 10:39:59.246,0,0,0,0,0,0,0,0,0,
27.71947, 10:39:59.279,0,0,0,0,0,0,0,0,0,
27.7591, 10:39:59.320,0,0,0,0,0,0,0,0,0,
27.79005, 10:39:59.351,0,0,0,0,0,0,0,0,0,
27.82261, 10:39:59.384,0,0,0,0,0,0,0,0,0,
27.85738, 10:39:59.417,0,0,0,0,0,0,0,0,0,
27.8865, 10:39:59.448,0,0,0,0,0,0,0,0,0,
27.91624, 10:39:59.477,0,0,0,0,0,0,0,0,0,
27.94639, 10:39:59.507,0,0,0,0,0,0,0,0,0,
27.97722, 10:39:59.537,0,0,0,0,0,0,0,0,0,
28.00558, 10:39:59.567,0,0,0,0,0,0,0,0,0,
28.0391, 10:39:59.599,0,0,0,0,0,0,0,0,0,
28.07303, 10:39:59.635,0,0,0,0,0,0,0,0,0,
28.10366, 10:39:59.665,0,0,0,0,0,0,0,0,0,
28.13387, 10:39:59.694,0,0,0,0,0,0,0,0,0,
28.16906, 10:39:59.730,0,0,0,0,0,0,0,0,0,
28.20166, 10:39:59.763,0,0,0,0,0,0,0,0,0,
28.23481, 10:39:59.796,0,0,0,0,0,0,0,0,0,
28.2704, 10:39:59.833,0,0,0,0,0,0,0,0,0,
28.30891, 10:39:59.871,0,0,0,0,0,0,0,0,0,
28.3413, 10:39:59.902,0,0,0,0,0,0,0,0,0,
28.37344, 10:39:59.934,0,0,0,0,0,0,0,0,0,
28.4059, 10:39:59.966,0,0,0,0,0,0,0,0,0,
28.44441, 10:40:00.006,0,0,0,0,0,0,0,0,0,
28.48333, 10:40:00.044,0,0,0,0,0,0,0,0,0,
28.52176, 10:40:00.083,0,0,0,0,0,0,0,0,0,
28.55619, 10:40:00.117,0,0,0,0,0,0,0,0,0,
28.60883, 10:40:00.182,0,0,0,0,0,0,0,0,0,
28.66933, 10:40:00.237,0,0,0,0,0,0,0,0,0,
28.72117, 10:40:00.283,0,0,0,0,0,0,0,0,0,
28.76924, 10:40:00.330,0,0,0,0,0,0,0,0,0,
28.80892, 10:40:00.370,0,0,0,0,0,0,0,0,0,
28.85007, 10:40:00.411,0,0,0,0,0,0,0,0,0,
28.89152, 10:40:00.452,0,0,0,0,0,0,0,0,0,
28.92247, 10:40:00.484,0,0,0,0,0,0,0,0,0,
28.96085, 10:40:00.522,0,0,0,0,0,0,0,0,0,
28.99564, 10:40:00.557,0,0,0,0,0,0,0,0,0,
29.03138, 10:40:00.593,0,0,0,0,0,0,0,0,0,
29.06712, 10:40:00.629,0,0,0,0,0,0,0,0,0,
29.09984, 10:40:00.659,0,0,0,0,0,0,0,0,0,
29.13004, 10:40:00.691,0,0,0,0,0,0,0,0,0,
29.16506, 10:40:00.727,0,0,0,0,0,0,0,0,0,
29.2056, 10:40:00.768,0,0,0,0,0,0,0,0,0,
29.24371, 10:40:00.806,0,0,0,0,0,0,0,0,0,
29.28024, 10:40:00.841,0,0,0,0,0,0,0,0,0,
29.31551, 10:40:00.876,0,0,0,0,0,0,0,0,0,
29.34465, 10:40:00.906,0,0,0,0,0,0,0,0,0,
29.37947, 10:40:00.939,0,0,0,0,0,0,0,0,0,
29.40948, 10:40:00.971,0,0,0,0,0,0,0,0,0,
29.45022, 10:40:01.011,0,0,0,0,0,0,0,0,0,
29.48087, 10:40:01.041,0,0,0,0,0,0,0,0,0,
29.51407, 10:40:01.074,0,0,0,0,0,0,0,0,0,
29.54705, 10:40:01.108,0,0,0,0,0,0,0,0,0,
29.58296, 10:40:01.143,0,0,0,0,0,0,0,0,0,
29.61548, 10:40:01.175,0,0,0,0,0,0,0,0,0,
29.64817, 10:40:01.209,0,0,0,0,0,0,0,0,0,
29.68133, 10:40:01.243,0,0,0,0,0,0,0,0,0,
29.71428, 10:40:01.274,0,0,0,0,0,0,0,0,0,
29.74435, 10:40:01.305,0,0,0,0,0,0,0,0,0,
29.77456, 10:40:01.334,0,0,0,0,0,0,0,0,0,
29.80699, 10:40:01.368,0,0,0,0,0,0,0,0,0,
29.84022, 10:40:01.401,0,0,0,0,0,0,0,0,0,
29.8755, 10:40:01.436,0,0,0,0,0,0,0,0,0,
29.91804, 10:40:01.480,0,0,0,0,0,0,0,0,0,
29.95244, 10:40:01.513,0,0,0,0,0,0,0,0,0,
29.98446, 10:40:01.546,0,0,0,0,0,0,0,0,0,
30.01781, 10:40:01.578,0,0,0,0,0,0,0,0,0,
30.05724, 10:40:01.619,0,0,0,0,0,0,0,0,0,
30.09448, 10:40:01.656,0,0,0,0,0,0,0,0,0,
30.12718, 10:40:01.688,0,0,0,0,0,0,0,0,0,
30.16725, 10:40:01.729,0,0,0,0,0,0,0,0,0,
30.20172, 10:40:01.763,0,0,0,0,0,0,0,0,0,
30.23584, 10:40:01.797,0,0,0,0,0,0,0,0,0,
30.27011, 10:40:01.830,0,0,0,0,0,0,0,0,0,
30.30029, 10:40:01.861,0,0,0,0,0,0,0,0,0,
30.33037, 10:40:01.890,0,0,0,0,0,0,0,0,0,
30.35986, 10:40:01.919,0,0,0,0,0,0,0,0,0,
30.39234, 10:40:01.953,0,0,0,0,0,0,0,0,0,
30.42535, 10:40:01.986,0,0,0,0,0,0,0,0,0,
30.45805, 10:40:02.018,0,0,0,0,0,0,0,0,0,
30.48711, 10:40:02.048,0,0,0,0,0,0,0,0,0,
30.51998, 10:40:02.081,0,0,0,0,0,0,0,0,0,
30.55207, 10:40:02.113,0,0,0,0,0,0,0,0,0,
30.58665, 10:40:02.148,0,0,0,0,0,0,0,0,0,
30.61801, 10:40:02.179,0,0,0,0,0,0,0,0,0,
30.64877, 10:40:02.210,0,0,0,0,0,0,0,0,0,
30.68306, 10:40:02.244,0,0,0,0,0,0,0,0,0,
30.71941, 10:40:02.279,0,0,0,0,0,0,0,0,0,
30.75053, 10:40:02.312,0,0,0,0,0,0,0,0,0,
30.78381, 10:40:02.345,0,0,0,0,0,0,0,0,0,
30.81594, 10:40:02.377,0,0,0,0,0,0,0,0,0,
30.84761, 10:40:02.409,0,0,0,0,0,0,0,0,0,
30.87824, 10:40:02.439,0,0,0,0,0,0,0,0,0,
30.91338, 10:40:02.475,0,0,0,0,0,0,0,0,0,
30.9467, 10:40:02.508,0,0,0,0,0,0,0,0,0,
30.97716, 10:40:02.537,0,0,0,0,0,0,0,0,0,
31.01149, 10:40:02.573,0,0,0,0,0,0,0,0,0,
31.05194, 10:40:02.614,0,0,0,0,0,0,0,0,0,
31.09519, 10:40:02.655,0,0,0,0,0,0,0,0,0,
31.12872, 10:40:02.690,0,0,0,0,0,0,0,0,0,
31.16152, 10:40:02.722,0,0,0,0,0,0,0,0,0,
31.19287, 10:40:02.752,0,0,0,0,0,0,0,0,0,
31.22163, 10:40:02.782,0,0,0,0,0,0,0,0,0,
31.25474, 10:40:02.815,0,0,0,0,0,0,0,0,0,
31.28639, 10:40:02.847,0,0,0,0,0,0,0,0,0,
31.32242, 10:40:02.884,0,0,0,0,0,0,0,0,0,
31.35917, 10:40:02.919,0,0,0,0,0,0,0,0,0,
31.38865, 10:40:02.949,0,0,0,0,0,0,0,0,0,
31.42144, 10:40:02.982,0,0,0,0,0,0,0,0,0,
31.4531, 10:40:03.013,0,0,0,0,0,0,0,0,0,
31.48794, 10:40:03.048,0,0,0,0,0,0,0,0,0,
31.51979, 10:40:03.079,0,0,0,0,0,0,0,0,0,
31.55043, 10:40:03.111,0,0,0,0,0,0,0,0,0,
31.58432, 10:40:03.146,0,0,0,0,0,0,0,0,0,
31.61404, 10:40:03.174,0,0,0,0,0,0,0,0,0,
31.64454, 10:40:03.207,0,0,0,0,0,0,0,0,0,
31.67895, 10:40:03.240,0,0,0,0,0,0,0,0,0,
31.71102, 10:40:03.273,0,0,0,0,0,0,0,0,0,
31.7437, 10:40:03.305,0,0,0,0,0,0,0,0,0,
31.77378, 10:40:03.333,0,0,0,0,0,0,0,0,0,
31.80803, 10:40:03.369,0,0,0,0,0,0,0,0,0,
31.83873, 10:40:03.398,0,0,0,0,0,0,0,0,0,
31.86999, 10:40:03.430,0,0,0,0,0,0,0,0,0,
31.9019, 10:40:03.462,0,0,0,0,0,0,0,0,0,
31.93215, 10:40:03.492,0,0,0,0,0,0,0,0,0,
31.96207, 10:40:03.522,0,0,0,0,0,0,0,0,0,
31.99662, 10:40:03.557,0,0,0,0,0,0,0,0,0,
32.02854, 10:40:03.589,0,0,0,0,0,0,0,0,0,
32.05854, 10:40:03.620,0,0,0,0,0,0,0,0,0,
32.09122, 10:40:03.653,0,0,0,0,0,0,0,0,0,
32.12236, 10:40:03.683,0,0,0,0,0,0,0,0,0,
32.15388, 10:40:03.714,0,0,0,0,0,0,0,0,0,
32.18902, 10:40:03.750,0,0,0,0,0,0,0,0,0,
32.22886, 10:40:03.791,0,0,0,0,0,0,0,0,0,
32.27335, 10:40:03.835,0,0,0,0,0,0,0,0,0,
32.30565, 10:40:03.867,0,0,0,0,0,0,0,0,0,
32.33544, 10:40:03.896,0,0,0,0,0,0,0,0,0,
32.37555, 10:40:03.937,0,0,0,0,0,0,0,0,0,
32.40622, 10:40:03.967,0,0,0,0,0,0,0,0,0,
32.43834, 10:40:03.998,0,0,0,0,0,0,0,0,0,
32.471, 10:40:04.031,0,0,0,0,0,0,0,0,0,
32.50021, 10:40:04.061,0,0,0,0,0,0,0,0,0,
32.53332, 10:40:04.094,0,0,0,0,0,0,0,0,0,
32.57212, 10:40:04.133,0,0,0,0,0,0,0,0,0,
32.60811, 10:40:04.170,0,0,0,0,0,0,0,0,0,
32.64125, 10:40:04.202,0,0,0,0,0,0,0,0,0,
32.67506, 10:40:04.235,0,0,0,0,0,0,0,0,0,
32.70669, 10:40:04.267,0,0,0,0,0,0,0,0,0,
32.73746, 10:40:04.298,0,0,0,0,0,0,0,0,0,
32.76617, 10:40:04.327,0,0,0,0,0,0,0,0,0,
32.79781, 10:40:04.358,0,0,0,0,0,0,0,0,0,
32.82694, 10:40:04.388,0,0,0,0,0,0,0,0,0,
32.86089, 10:40:04.422,0,0,0,0,0,0,0,0,0,
32.89976, 10:40:04.460,0,0,0,0,0,0,0,0,0,
32.93153, 10:40:04.492,0,0,0,0,0,0,0,0,0,
32.96413, 10:40:04.525,0,0,0,0,0,0,0,0,0,
32.99577, 10:40:04.556,0,0,0,0,0,0,0,0,0,
33.02801, 10:40:04.590,0,0,0,0,0,0,0,0,0,
33.05984, 10:40:04.621,0,0,0,0,0,0,0,0,0,
33.09062, 10:40:04.653,0,0,0,0,0,0,0,0,0,
33.12421, 10:40:04.684,0,0,0,0,0,0,0,0,0,
33.15499, 10:40:04.716,0,0,0,0,0,0,0,0,0,
33.18407, 10:40:04.744,0,0,0,0,0,0,0,0,0,
33.21612, 10:40:04.776,0,0,0,0,0,0,0,0,0,
33.24722, 10:40:04.808,0,0,0,0,0,0,0,0,0,
33.27923, 10:40:04.840,0,0,0,0,0,0,0,0,0,
33.30874, 10:40:04.870,0,0,0,0,0,0,0,0,0,
33.3498, 10:40:04.911,0,0,0,0,0,0,0,0,0,
33.38664, 10:40:04.949,0,0,0,0,0,0,0,0,0,
33.43103, 10:40:04.992,0,0,0,0,0,0,0,0,0,
33.46348, 10:40:05.025,0,0,0,0,0,0,0,0,0,
33.49718, 10:40:05.057,0,0,0,0,0,0,0,0,0,
33.53907, 10:40:05.099,0,0,0,0,0,0,0,0,0,
33.5743, 10:40:05.135,0,0,0,0,0,0,0,0,0,
33.6055, 10:40:05.165,0,0,0,0,0,0,0,0,0,
33.63583, 10:40:05.197,0,0,0,0,0,0,0,0,0,
33.66718, 10:40:05.228,0,0,0,0,0,0,0,0,0,
33.69736, 10:40:05.257,0,0,0,0,0,0,0,0,0,
33.72633, 10:40:05.288,0,0,0,0,0,0,0,0,0,
33.75883, 10:40:05.318,0,0,0,0,0,0,0,0,0,
33.79028, 10:40:05.351,0,0,0,0,0,0,0,0,0,
33.82262, 10:40:05.384,0,0,0,0,0,0,0,0,0,
33.85456, 10:40:05.416,0,0,0,0,0,0,0,0,0,
33.88692, 10:40:05.448,0,0,0,0,0,0,0,0,0,
33.9211, 10:40:05.482,0,0,0,0,0,0,0,0,0,
33.95543, 10:40:05.515,0,0,0,0,0,0,0,0,0,
33.98526, 10:40:05.545,0,0,0,0,0,0,0,0,0,
34.01694, 10:40:05.577,0,0,0,0,0,0,0,0,0,
34.04672, 10:40:05.609,0,0,0,0,0,0,0,0,0,
34.07946, 10:40:05.639,0,0,0,0,0,0,0,0,0,
34.1138, 10:40:05.675,0,0,0,0,0,0,0,0,0,
34.14507, 10:40:05.706,0,0,0,0,0,0,0,0,0,
34.17617, 10:40:05.737,0,0,0,0,0,0,0,0,0,
34.21266, 10:40:05.775,0,0,0,0,0,0,0,0,0,
34.25327, 10:40:05.816,0,0,0,0,0,0,0,0,0,
34.293, 10:40:05.855,0,0,0,0,0,0,0,0,0,
34.32798, 10:40:05.890,0,0,0,0,0,0,0,0,0,
34.36408, 10:40:05.924,0,0,0,0,0,0,0,0,0,
34.39509, 10:40:05.955,0,0,0,0,0,0,0,0,0,
34.43485, 10:40:05.996,0,0,0,0,0,0,0,0,0,
34.46964, 10:40:06.030,0,0,0,0,0,0,0,0,0,
34.50229, 10:40:06.064,0,0,0,0,0,0,0,0,0,
34.54302, 10:40:06.104,0,0,0,0,0,0,0,0,0,
34.58924, 10:40:06.150,0,0,0,0,0,0,0,0,0,
34.62202, 10:40:06.183,0,0,0,0,0,0,0,0,0,
34.65539, 10:40:06.215,0,0,0,0,0,0,0,0,0,
34.68664, 10:40:06.248,0,0,0,0,0,0,0,0,0,
34.71768, 10:40:06.278,0,0,0,0,0,0,0,0,0,
34.74813, 10:40:06.309,0,0,0,0,0,0,0,0,0,
34.7814, 10:40:06.343,0,0,0,0,0,0,0,0,0,
34.81458, 10:40:06.375,0,0,0,0,0,0,0,0,0,
34.8456, 10:40:06.408,0,0,0,0,0,0,0,0,0,
34.87772, 10:40:06.438,0,0,0,0,0,0,0,0,0,
34.90997, 10:40:06.471,0,0,0,0,0,0,0,0,0,
34.94106, 10:40:06.501,0,0,0,0,0,0,0,0,0,
34.97386, 10:40:06.534,0,0,0,0,0,0,0,0,0,
35.00362, 10:40:06.565,0,0,0,0,0,0,0,0,0,
35.0387, 10:40:06.598,0,0,0,0,0,0,0,0,0,
35.06961, 10:40:06.631,0,0,0,0,0,0,0,0,0,
35.10038, 10:40:06.661,0,0,0,0,0,0,0,0,0,
35.13376, 10:40:06.694,0,0,0,0,0,0,0,0,0,
35.16531, 10:40:06.728,0,0,0,0,0,0,0,0,0,
35.19738, 10:40:06.759,0,0,0,0,0,0,0,0,0,
35.22849, 10:40:06.791,0,0,0,0,0,0,0,0,0,
35.26202, 10:40:06.823,0,0,0,0,0,0,0,0,0,
35.29553, 10:40:06.856,0,0,0,0,0,0,0,0,0,
35.32771, 10:40:06.888,0,0,0,0,0,0,0,0,0,
35.36179, 10:40:06.922,0,0,0,0,0,0,0,0,0,
35.39308, 10:40:06.954,0,0,0,0,0,0,0,0,0,
35.42731, 10:40:06.989,0,0,0,0,0,0,0,0,0,
35.45891, 10:40:07.019,0,0,0,0,0,0,0,0,0,
35.4901, 10:40:07.051,0,0,0,0,0,0,0,0,0,
35.52261, 10:40:07.084,0,0,0,0,0,0,0,0,0,
35.55396, 10:40:07.115,0,0,0,0,0,0,0,0,0,
35.58791, 10:40:07.150,0,0,0,0,0,0,0,0,0,
35.62043, 10:40:07.182,0,0,0,0,0,0,0,0,0,
35.65154, 10:40:07.213,0,0,0,0,0,0,0,0,0,
35.68609, 10:40:07.248,0,0,0,0,0,0,0,0,0,
35.72248, 10:40:07.285,0,0,0,0,0,0,0,0,0,
35.76294, 10:40:07.324,0,0,0,0,0,0,0,0,0,
35.79798, 10:40:07.359,0,0,0,0,0,0,0,0,0,
35.82807, 10:40:07.389,0,0,0,0,0,0,0,0,0,
35.86062, 10:40:07.421,0,0,0,0,0,0,0,0,0,
35.89518, 10:40:07.455,0,0,0,0,0,0,0,0,0,
35.92509, 10:40:07.485,0,0,0,0,0,0,0,0,0,
35.95605, 10:40:07.516,0,0,0,0,0,0,0,0,0,
35.99144, 10:40:07.552,0,0,0,0,0,0,0,0,0,
36.02399, 10:40:07.585,0,0,0,0,0,0,0,0,0,
36.05581, 10:40:07.616,0,0,0,0,0,0,0,0,0,
36.08535, 10:40:07.646,0,0,0,0,0,0,0,0,0,
36.11568, 10:40:07.676,0,0,0,0,0,0,0,0,0,
36.14548, 10:40:07.707,0,0,0,0,0,0,0,0,0,
36.17588, 10:40:07.736,0,0,0,0,0,0,0,0,0,
36.20641, 10:40:07.768,0,0,0,0,0,0,0,0,0,
36.23886, 10:40:07.799,0,0,0,0,0,0,0,0,0,
36.27428, 10:40:07.836,0,0,0,0,0,0,0,0,0,
36.30787, 10:40:07.869,0,0,0,0,0,0,0,0,0,
36.33929, 10:40:07.899,0,0,0,0,0,0,0,0,0,
36.37038, 10:40:07.932,0,0,0,0,0,0,0,0,0,
36.40414, 10:40:07.965,0,0,0,0,0,0,0,0,0,
36.43596, 10:40:07.997,0,0,0,0,0,0,0,0,0,
36.47227, 10:40:08.032,0,0,0,0,0,0,0,0,0,
36.50526, 10:40:08.067,0,0,0,0,0,0,0,0,0,
36.53726, 10:40:08.097,0,0,0,0,0,0,0,0,0,
36.56601, 10:40:08.128,0,0,0,0,0,0,0,0,0,
36.60218, 10:40:08.164,0,0,0,0,0,0,0,0,0,
36.64721, 10:40:08.208,0,0,0,0,0,0,0,0,0,
36.68478, 10:40:08.247,0,0,0,0,0,0,0,0,0,
36.71721, 10:40:08.277,0,0,0,0,0,0,0,0,0,
36.74905, 10:40:08.310,0,0,0,0,0,0,0,0,0,
36.78027, 10:40:08.342,0,0,0,0,0,0,0,0,0,
36.81328, 10:40:08.374,0,0,0,0,0,0,0,0,0,
36.84863, 10:40:08.410,0,0,0,0,0,0,0,0,0,
36.88772, 10:40:08.449,0,0,0,0,0,0,0,0,0,
36.92764, 10:40:08.488,0,0,0,0,0,0,0,0,0,
36.96106, 10:40:08.521,0,0,0,0,0,0,0,0,0,
36.99216, 10:40:08.552,0,0,0,0,0,0,0,0,0,
37.02063, 10:40:08.582,0,0,0,0,0,0,0,0,0,
37.05896, 10:40:08.619,0,0,0,0,0,0,0,0,0,
37.10119, 10:40:08.662,0,0,0,0,0,0,0,0,0,
37.13412, 10:40:08.694,0,0,0,0,0,0,0,0,0,
37.16404, 10:40:08.726,0,0,0,0,0,0,0,0,0,
37.19563, 10:40:08.756,0,0,0,0,0,0,0,0,0,
37.22762, 10:40:08.788,0,0,0,0,0,0,0,0,0,
37.26133, 10:40:08.822,0,0,0,0,0,0,0,0,0,
37.30066, 10:40:08.861,0,0,0,0,0,0,0,0,0,
37.35898, 10:40:08.920,0,0,0,0,0,0,0,0,0,
37.39081, 10:40:08.952,0,0,0,0,0,0,0,0,0,
37.42834, 10:40:08.989,0,0,0,0,0,0,0,0,0,
37.46953, 10:40:09.031,0,0,0,0,0,0,0,0,0,
37.50549, 10:40:09.067,0,0,0,0,0,0,0,0,0,
37.53621, 10:40:09.097,0,0,0,0,0,0,0,0,0,
37.56765, 10:40:09.129,0,0,0,0,0,0,0,0,0,
37.59919, 10:40:09.160,0,0,0,0,0,0,0,0,0,
37.63038, 10:40:09.190,0,0,0,0,0,0,0,0,0,
37.66269, 10:40:09.224,0,0,0,0,0,0,0,0,0,
37.69695, 10:40:09.258,0,0,0,0,0,0,0,0,0,
37.74058, 10:40:09.304,0,0,0,0,0,0,0,0,0,
37.77379, 10:40:09.333,0,0,0,0,0,0,0,0,0,
37.80611, 10:40:09.367,0,0,0,0,0,0,0,0,0,
37.83759, 10:40:09.398,0,0,0,0,0,0,0,0,0,
37.86797, 10:40:09.429,0,0,0,0,0,0,0,0,0,
37.90173, 10:40:09.462,0,0,0,0,0,0,0,0,0,
37.93489, 10:40:09.495,0,0,0,0,0,0,0,0,0,
37.96545, 10:40:09.527,0,0,0,0,0,0,0,0,0,
38.00293, 10:40:09.564,0,0,0,0,0,0,0,0,0,
38.04195, 10:40:09.604,0,0,0,0,0,0,0,0,0,
38.08287, 10:40:09.643,0,0,0,0,0,0,0,0,0,
38.11569, 10:40:09.676,0,0,0,0,0,0,0,0,0,
38.17142, 10:40:09.733,0,0,0,0,0,0,0,0,0,
38.20704, 10:40:09.768,0,0,0,0,0,0,0,0,0,
38.2402, 10:40:09.801,0,0,0,0,0,0,0,0,0,
38.27347, 10:40:09.833,0,0,0,0,0,0,0,0,0,
38.31237, 10:40:09.873,0,0,0,0,0,0,0,0,0,
38.3447, 10:40:09.906,0,0,0,0,0,0,0,0,0,
38.37968, 10:40:09.940,0,0,0,0,0,0,0,0,0,
38.41015, 10:40:09.971,0,0,0,0,0,0,0,0,0,
38.44163, 10:40:10.003,0,0,0,0,0,0,0,0,0,
38.4721, 10:40:10.032,0,0,0,0,0,0,0,0,0,
38.50205, 10:40:10.063,0,0,0,0,0,0,0,0,0,
38.53205, 10:40:10.092,0,0,0,0,0,0,0,0,0,
38.56229, 10:40:10.123,0,0,0,0,0,0,0,0,0,
38.59401, 10:40:10.153,0,0,0,0,0,0,0,0,0,
38.6226, 10:40:10.183,0,0,0,0,0,0,0,0,0,
38.65277, 10:40:10.213,0,0,0,0,0,0,0,0,0,
38.6872, 10:40:10.249,0,0,0,0,0,0,0,0,0,
38.72044, 10:40:10.281,0,0,0,0,0,0,0,0,0,
38.75456, 10:40:10.316,0,0,0,0,0,0,0,0,0,
38.7856, 10:40:10.347,0,0,0,0,0,0,0,0,0,
38.81973, 10:40:10.380,0,0,0,0,0,0,0,0,0,
38.85059, 10:40:10.412,0,0,0,0,0,0,0,0,0,
38.88279, 10:40:10.444,0,0,0,0,0,0,0,0,0,
38.91578, 10:40:10.476,0,0,0,0,0,0,0,0,0,
38.94637, 10:40:10.507,0,0,0,0,0,0,0,0,0,
38.97757, 10:40:10.538,0,0,0,0,0,0,0,0,0,
39.00773, 10:40:10.569,0,0,0,0,0,0,0,0,0,
39.04336, 10:40:10.604,0,0,0,0,0,0,0,0,0,
39.07409, 10:40:10.634,0,0,0,0,0,0,0,0,0,
39.1027, 10:40:10.664,0,0,0,0,0,0,0,0,0,
39.13516, 10:40:10.695,0,0,0,0,0,0,0,0,0,
39.17112, 10:40:10.732,0,0,0,0,0,0,0,0,0,
39.20881, 10:40:10.771,0,0,0,0,0,0,0,0,0,
39.25528, 10:40:10.817,0,0,0,0,0,0,0,0,0,
39.28839, 10:40:10.849,0,0,0,0,0,0,0,0,0,
39.32126, 10:40:10.881,0,0,0,0,0,0,0,0,0,
39.35204, 10:40:10.912,0,0,0,0,0,0,0,0,0,
39.39092, 10:40:10.951,0,0,0,0,0,0,0,0,0,
39.4238, 10:40:10.985,0,0,0,0,0,0,0,0,0,
39.45664, 10:40:11.017,0,0,0,0,0,0,0,0,0,
39.48928, 10:40:11.051,0,0,0,0,0,0,0,0,0,
39.52017, 10:40:11.081,0,0,0,0,0,0,0,0,0,
39.55281, 10:40:11.112,0,0,0,0,0,0,0,0,0,
39.5845, 10:40:11.145,0,0,0,0,0,0,0,0,0,
39.61534, 10:40:11.176,0,0,0,0,0,0,0,0,0,
39.64819, 10:40:11.209,0,0,0,0,0,0,0,0,0,
39.68272, 10:40:11.243,0,0,0,0,0,0,0,0,0,
39.71434, 10:40:11.274,0,0,0,0,0,0,0,0,0,
39.74718, 10:40:11.308,0,0,0,0,0,0,0,0,0,
39.77982, 10:40:11.339,0,0,0,0,0,0,0,0,0,
39.81166, 10:40:11.372,0,0,0,0,0,0,0,0,0,
39.8437, 10:40:11.404,0,0,0,0,0,0,0,0,0,
39.88036, 10:40:11.441,0,0,0,0,0,0,0,0,0,
39.92237, 10:40:11.483,0,0,0,0,0,0,0,0,0,
39.95374, 10:40:11.514,0,0,0,0,0,0,0,0,0,
39.98392, 10:40:11.545,0,0,0,0,0,0,0,0,0,
40.01614, 10:40:11.576,0,0,0,0,0,0,0,0,0,
40.05065, 10:40:11.611,0,0,0,0,0,0,0,0,0,
40.08231, 10:40:11.643,0,0,0,0,0,0,0,0,0,
40.11624, 10:40:11.676,0,0,0,0,0,0,0,0,0,
40.14954, 10:40:11.710,0,0,0,0,0,0,0,0,0,
40.17999, 10:40:11.740,0,0,0,0,0,0,0,0,0,
40.2113, 10:40:11.772,0,0,0,0,0,0,0,0,0,
40.24214, 10:40:11.804,0,0,0,0,0,0,0,0,0,
40.27505, 10:40:11.835,0,0,0,0,0,0,0,0,0,
40.30694, 10:40:11.869,0,0,0,0,0,0,0,0,0,
40.34381, 10:40:11.905,0,0,0,0,0,0,0,0,0,
40.38473, 10:40:11.946,0,0,0,0,0,0,0,0,0,
40.41792, 10:40:11.978,0,0,0,0,0,0,0,0,0,
40.44891, 10:40:12.011,0,0,0,0,0,0,0,0,0,
40.47973, 10:40:12.040,0,0,0,0,0,0,0,0,0,
40.50819, 10:40:12.069,0,0,0,0,0,0,0,0,0,
40.54416, 10:40:12.106,0,0,0,0,0,0,0,0,0,
40.57736, 10:40:12.138,0,0,0,0,0,0,0,0,0,
40.60896, 10:40:12.170,0,0,0,0,0,0,0,0,0,
40.64505, 10:40:12.206,0,0,0,0,0,0,0,0,0,
40.67677, 10:40:12.237,0,0,0,0,0,0,0,0,0,
40.70578, 10:40:12.267,0,0,0,0,0,0,0,0,0,
40.7389, 10:40:12.298,0,0,0,0,0,0,0,0,0,
40.78159, 10:40:12.343,0,0,0,0,0,0,0,0,0,
40.81474, 10:40:12.375,0,0,0,0,0,0,0,0,0,
40.84791, 10:40:12.409,0,0,0,0,0,0,0,0,0,
40.88194, 10:40:12.443,0,0,0,0,0,0,0,0,0,
40.9167, 10:40:12.477,0,0,0,0,0,0,0,0,0,
40.95219, 10:40:12.514,0,0,0,0,0,0,0,0,0,
40.98843, 10:40:12.550,0,0,0,0,0,0,0,0,0,
41.02044, 10:40:12.581,0,0,0,0,0,0,0,0,0,
41.05161, 10:40:12.611,0,0,0,0,0,0,0,0,0,
41.08414, 10:40:12.645,0,0,0,0,0,0,0,0,0,
41.11469, 10:40:12.675,0,0,0,0,0,0,0,0,0,
41.14502, 10:40:12.706,0,0,0,0,0,0,0,0,0,
41.17517, 10:40:12.735,0,0,0,0,0,0,0,0,0,
41.20623, 10:40:12.767,0,0,0,0,0,0,0,0,0,
41.23672, 10:40:12.798,0,0,0,0,0,0,0,0,0,
41.27283, 10:40:12.834,0,0,0,0,0,0,0,0,0,
41.305, 10:40:12.866,0,0,0,0,0,0,0,0,0,
41.33461, 10:40:12.895,0,0,0,0,0,0,0,0,0,
41.36345, 10:40:12.924,0,0,0,0,0,0,0,0,0,
41.39439, 10:40:12.954,0,0,0,0,0,0,0,0,0,
41.43635, 10:40:12.997,0,0,0,0,0,0,0,0,0,
41.47191, 10:40:13.033,0,0,0,0,0,0,0,0,0,
41.50547, 10:40:13.067,0,0,0,0,0,0,0,0,0,
41.55975, 10:40:13.121,0,0,0,0,0,0,0,0,0,
41.59234, 10:40:13.154,0,0,0,0,0,0,0,0,0,
41.62562, 10:40:13.186,0,0,0,0,0,0,0,0,0,
41.65804, 10:40:13.218,0,0,0,0,0,0,0,0,0,
41.69701, 10:40:13.259,0,0,0,0,0,0,0,0,0,
41.73835, 10:40:13.299,0,0,0,0,0,0,0,0,0,
41.77016, 10:40:13.330,0,0,0,0,0,0,0,0,0,
41.79964, 10:40:13.359,0,0,0,0,0,0,0,0,0,
41.83051, 10:40:13.391,0,0,0,0,0,0,0,0,0,
41.86403, 10:40:13.425,0,0,0,0,0,0,0,0,0,
41.89828, 10:40:13.458,0,0,0,0,0,0,0,0,0,
41.92788, 10:40:13.490,0,0,0,0,0,0,0,0,0,
41.96965, 10:40:13.530,0,0,0,0,0,0,0,0,0,
42.00042, 10:40:13.561,0,0,0,0,0,0,0,0,0,
42.03139, 10:40:13.591,0,0,0,0,0,0,0,0,0,
42.06328, 10:40:13.626,0,0,0,0,0,0,0,0,0,
42.09673, 10:40:13.658,0,0,0,0,0,0,0,0,0,
42.12819, 10:40:13.690,0,0,0,0,0,0,0,0,0,
42.16231, 10:40:13.724,0,0,0,0,0,0,0,0,0,
42.19694, 10:40:13.758,0,0,0,0,0,0,0,0,0,
42.23181, 10:40:13.794,0,0,0,0,0,0,0,0,0,
42.26772, 10:40:13.829,0,0,0,0,0,0,0,0,0,
42.30357, 10:40:13.864,0,0,0,0,0,0,0,0,0,
42.33696, 10:40:13.899,0,0,0,0,0,0,0,0,0,
42.37138, 10:40:13.932,0,0,0,0,0,0,0,0,0,
42.40586, 10:40:13.966,0,0,0,0,0,0,0,0,0,
42.43593, 10:40:13.996,0,0,0,0,0,0,0,0,0,
42.46658, 10:40:14.027,0,0,0,0,0,0,0,0,0,
42.4964, 10:40:14.057,0,0,0,0,0,0,0,0,0,
42.53391, 10:40:14.095,0,0,0,0,0,0,0,0,0,
42.57111, 10:40:14.132,0,0,0,0,0,0,0,0,0,
42.60629, 10:40:14.167,0,0,0,0,0,0,0,0,0,
42.63599, 10:40:14.196,0,0,0,0,0,0,0,0,0,
42.668, 10:40:14.231,0,0,0,0,0,0,0,0,0,
42.7087, 10:40:14.272,0,0,0,0,0,0,0,0,0,
42.74746, 10:40:14.308,0,0,0,0,0,0,0,0,0,
42.77803, 10:40:14.338,0,0,0,0,0,0,0,0,0,
42.80801, 10:40:14.369,0,0,0,0,0,0,0,0,0,
42.84229, 10:40:14.403,0,0,0,0,0,0,0,0,0,
42.87433, 10:40:14.435,0,0,0,0,0,0,0,0,0,
42.90536, 10:40:14.466,0,0,0,0,0,0,0,0,0,
42.93605, 10:40:14.496,0,0,0,0,0,0,0,0,0,
42.96689, 10:40:14.528,0,0,0,0,0,0,0,0,0,
42.99996, 10:40:14.560,0,0,0,0,0,0,0,0,0,
43.02998, 10:40:14.591,0,0,0,0,0,0,0,0,0,
43.06473, 10:40:14.626,0,0,0,0,0,0,0,0,0,
43.09456, 10:40:14.655,0,0,0,0,0,0,0,0,0,
43.12375, 10:40:14.685,0,0,0,0,0,0,0,0,0,
43.15445, 10:40:14.714,0,0,0,0,0,0,0,0,0,
43.18818, 10:40:14.750,0,0,0,0,0,0,0,0,0,
43.22197, 10:40:14.783,0,0,0,0,0,0,0,0,0,
43.25737, 10:40:14.819,0,0,0,0,0,0,0,0,0,
43.29206, 10:40:14.854,0,0,0,0,0,0,0,0,0,
43.32709, 10:40:14.888,0,0,0,0,0,0,0,0,0,
43.35875, 10:40:14.919,0,0,0,0,0,0,0,0,0,
43.39329, 10:40:14.954,0,0,0,0,0,0,0,0,0,
43.42516, 10:40:14.986,0,0,0,0,0,0,0,0,0,
43.45565, 10:40:15.016,0,0,0,0,0,0,0,0,0,
43.48626, 10:40:15.048,0,0,0,0,0,0,0,0,0,
43.52132, 10:40:15.083,0,0,0,0,0,0,0,0,0,
43.5567, 10:40:15.117,0,0,0,0,0,0,0,0,0,
43.59026, 10:40:15.151,0,0,0,0,0,0,0,0,0,
43.62558, 10:40:15.186,0,0,0,0,0,0,0,0,0,
43.65993, 10:40:15.220,0,0,0,0,0,0,0,0,0,
43.69521, 10:40:15.256,0,0,0,0,0,0,0,0,0,
43.72626, 10:40:15.287,0,0,0,0,0,0,0,0,0,
43.75703, 10:40:15.317,0,0,0,0,0,0,0,0,0,
43.78912, 10:40:15.350,0,0,0,0,0,0,0,0,0,
43.82301, 10:40:15.385,0,0,0,0,0,0,0,0,0,
43.87746, 10:40:15.439,0,0,0,0,0,0,0,0,0,
43.90954, 10:40:15.470,0,0,0,0,0,0,0,0,0,
43.94234, 10:40:15.503,0,0,0,0,0,0,0,0,0,
43.97378, 10:40:15.533,0,0,0,0,0,0,0,0,0,
44.0056, 10:40:15.567,0,0,0,0,0,0,0,0,0,
44.04436, 10:40:15.606,0,0,0,0,0,0,0,0,0,
44.07753, 10:40:15.638,0,0,0,0,0,0,0,0,0,
44.10653, 10:40:15.668,0,0,0,0,0,0,0,0,0,
44.13831, 10:40:15.699,0,0,0,0,0,0,0,0,0,
44.1674, 10:40:15.728,0,0,0,0,0,0,0,0,0,
44.1996, 10:40:15.759,0,0,0,0,0,0,0,0,0,
44.23039, 10:40:15.791,0,0,0,0,0,0,0,0,0,
44.26372, 10:40:15.826,0,0,0,0,0,0,0,0,0,
44.29921, 10:40:15.859,0,0,0,0,0,0,0,0,0,
44.32861, 10:40:15.890,0,0,0,0,0,0,0,0,0,
44.36007, 10:40:15.921,0,0,0,0,0,0,0,0,0,
44.39361, 10:40:15.954,0,0,0,0,0,0,0,0,0,
44.42584, 10:40:15.987,0,0,0,0,0,0,0,0,0,
44.45934, 10:40:16.019,0,0,0,0,0,0,0,0,0,
44.4885, 10:40:16.050,0,0,0,0,0,0,0,0,0,
44.52365, 10:40:16.085,0,0,0,0,0,0,0,0,0,
44.55415, 10:40:16.115,0,0,0,0,0,0,0,0,0,
44.58545, 10:40:16.147,0,0,0,0,0,0,0,0,0,
44.61596, 10:40:16.176,0,0,0,0,0,0,0,0,0,
44.64943, 10:40:16.211,0,0,0,0,0,0,0,0,0,
44.68358, 10:40:16.245,0,0,0,0,0,0,0,0,0,
44.71862, 10:40:16.279,0,0,0,0,0,0,0,0,0,
44.75151, 10:40:16.312,0,0,0,0,0,0,0,0,0,
44.78328, 10:40:16.344,0,0,0,0,0,0,0,0,0,
44.81523, 10:40:16.375,0,0,0,0,0,0,0,0,0,
44.84626, 10:40:16.407,0,0,0,0,0,0,0,0,0,
44.87672, 10:40:16.437,0,0,0,0,0,0,0,0,0,
44.90669, 10:40:16.468,0,0,0,0,0,0,0,0,0,
44.94078, 10:40:16.502,0,0,0,0,0,0,0,0,0,
44.98035, 10:40:16.542,0,0,0,0,0,0,0,0,0,
45.01724, 10:40:16.579,0,0,0,0,0,0,0,0,0,
45.05471, 10:40:16.617,0,0,0,0,0,0,0,0,0,
45.08875, 10:40:16.650,0,0,0,0,0,0,0,0,0,
45.1196, 10:40:16.679,0,0,0,0,0,0,0,0,0,
45.15302, 10:40:16.715,0,0,0,0,0,0,0,0,0,
45.1902, 10:40:16.752,0,0,0,0,0,0,0,0,0,
45.22411, 10:40:16.785,0,0,0,0,0,0,0,0,0,
45.25706, 10:40:16.818,0,0,0,0,0,0,0,0,0,
45.29213, 10:40:16.853,0,0,0,0,0,0,0,0,0,
45.32295, 10:40:16.884,0,0,0,0,0,0,0,0,0,
45.35475, 10:40:16.915,0,0,0,0,0,0,0,0,0,
45.38801, 10:40:16.949,0,0,0,0,0,0,0,0,0,
45.41851, 10:40:16.979,0,0,0,0,0,0,0,0,0,
45.44952, 10:40:17.010,0,0,0,0,0,0,0,0,0,
45.48372, 10:40:17.045,0,0,0,0,0,0,0,0,0,
45.51896, 10:40:17.079,0,0,0,0,0,0,0,0,0,
45.55267, 10:40:17.114,0,0,0,0,0,0,0,0,0,
45.58501, 10:40:17.145,0,0,0,0,0,0,0,0,0,
45.61751, 10:40:17.178,0,0,0,0,0,0,0,0,0,
45.64893, 10:40:17.209,0,0,0,0,0,0,0,0,0,
45.67852, 10:40:17.239,0,0,0,0,0,0,0,0,0,
45.70901, 10:40:17.270,0,0,0,0,0,0,0,0,0,
45.75586, 10:40:17.317,0,0,0,0,0,0,0,0,0,
45.78695, 10:40:17.348,0,0,0,0,0,0,0,0,0,
45.81959, 10:40:17.380,0,0,0,0,0,0,0,0,0,
45.85008, 10:40:17.411,0,0,0,0,0,0,0,0,0,
45.88041, 10:40:17.442,0,0,0,0,0,0,0,0,0,
45.91109, 10:40:17.472,0,0,0,0,0,0,0,0,0,
45.94096, 10:40:17.502,0,0,0,0,0,0,0,0,0,
45.97186, 10:40:17.531,0,0,0,0,0,0,0,0,0,
46.00268, 10:40:17.563,0,0,0,0,0,0,0,0,0,
46.03555, 10:40:17.595,0,0,0,0,0,0,0,0,0,
46.06524, 10:40:17.626,0,0,0,0,0,0,0,0,0,
46.09632, 10:40:17.657,0,0,0,0,0,0,0,0,0,
46.1317, 10:40:17.693,0,0,0,0,0,0,0,0,0,
46.16767, 10:40:17.730,0,0,0,0,0,0,0,0,0,
46.20897, 10:40:17.770,0,0,0,0,0,0,0,0,0,
46.24457, 10:40:17.806,0,0,0,0,0,0,0,0,0,
46.27753, 10:40:17.838,0,0,0,0,0,0,0,0,0,
46.30748, 10:40:17.868,0,0,0,0,0,0,0,0,0,
46.33749, 10:40:17.898,0,0,0,0,0,0,0,0,0,
46.37419, 10:40:17.936,0,0,0,0,0,0,0,0,0,
46.40716, 10:40:17.968,0,0,0,0,0,0,0,0,0,
46.44046, 10:40:18.001,0,0,0,0,0,0,0,0,0,
46.47798, 10:40:18.038,0,0,0,0,0,0,0,0,0,
46.5097, 10:40:18.071,0,0,0,0,0,0,0,0,0,
46.54182, 10:40:18.103,0,0,0,0,0,0,0,0,0,
46.57547, 10:40:18.136,0,0,0,0,0,0,0,0,0,
46.60747, 10:40:18.169,0,0,0,0,0,0,0,0,0,
46.64129, 10:40:18.202,0,0,0,0,0,0,0,0,0,
46.67745, 10:40:18.238,0,0,0,0,0,0,0,0,0,
46.70815, 10:40:18.270,0,0,0,0,0,0,0,0,0,
46.73975, 10:40:18.299,0,0,0,0,0,0,0,0,0,
46.77005, 10:40:18.331,0,0,0,0,0,0,0,0,0,
46.80547, 10:40:18.366,0,0,0,0,0,0,0,0,0,
46.83951, 10:40:18.400,0,0,0,0,0,0,0,0,0,
46.87011, 10:40:18.430,0,0,0,0,0,0,0,0,0,
46.90214, 10:40:18.463,0,0,0,0,0,0,0,0,0,
46.93355, 10:40:18.494,0,0,0,0,0,0,0,0,0,
46.96486, 10:40:18.526,0,0,0,0,0,0,0,0,0,
46.99674, 10:40:18.558,0,0,0,0,0,0,0,0,0,
47.03097, 10:40:18.593,0,0,0,0,0,0,0,0,0,
47.06349, 10:40:18.625,0,0,0,0,0,0,0,0,0,
47.09561, 10:40:18.655,0,0,0,0,0,0,0,0,0,
47.12932, 10:40:18.691,0,0,0,0,0,0,0,0,0,
47.16159, 10:40:18.722,0,0,0,0,0,0,0,0,0,
47.19328, 10:40:18.753,0,0,0,0,0,0,0,0,0,
47.22391, 10:40:18.786,0,0,0,0,0,0,0,0,0,
47.26151, 10:40:18.825,0,0,0,0,0,0,0,0,0,
47.29995, 10:40:18.861,0,0,0,0,0,0,0,0,0,
47.34167, 10:40:18.905,0,0,0,0,0,0,0,0,0,
47.38124, 10:40:18.943,0,0,0,0,0,0,0,0,0,
47.41432, 10:40:18.975,0,0,0,0,0,0,0,0,0,
47.44585, 10:40:19.007,0,0,0,0,0,0,0,0,0,
47.4763, 10:40:19.036,0,0,0,0,0,0,0,0,0,
47.50845, 10:40:19.069,0,0,0,0,0,0,0,0,0,
47.54139, 10:40:19.102,0,0,0,0,0,0,0,0,0,
47.57118, 10:40:19.131,0,0,0,0,0,0,0,0,0,
47.59993, 10:40:19.160,0,0,0,0,0,0,0,0,0,
47.62915, 10:40:19.190,0,0,0,0,0,0,0,0,0,
47.66057, 10:40:19.221,0,0,0,0,0,0,0,0,0,
47.69098, 10:40:19.251,0,0,0,0,0,0,0,0,0,
47.72495, 10:40:19.287,0,0,0,0,0,0,0,0,0,
47.7632, 10:40:19.325,0,0,0,0,0,0,0,0,0,
47.79537, 10:40:19.356,0,0,0,0,0,0,0,0,0,
47.82647, 10:40:19.387,0,0,0,0,0,0,0,0,0,
47.85678, 10:40:19.417,0,0,0,0,0,0,0,0,0,
47.88735, 10:40:19.448,0,0,0,0,0,0,0,0,0,
47.91725, 10:40:19.477,0,0,0,0,0,0,0,0,0,
47.94637, 10:40:19.507,0,0,0,0,0,0,0,0,0,
47.97849, 10:40:19.539,0,0,0,0,0,0,0,0,0,
48.00811, 10:40:19.569,0,0,0,0,0,0,0,0,0,
48.03963, 10:40:19.599,0,0,0,0,0,0,0,0,0,
48.06885, 10:40:19.630,0,0,0,0,0,0,0,0,0,
48.0995, 10:40:19.659,0,0,0,0,0,0,0,0,0,
48.12928, 10:40:19.690,0,0,0,0,0,0,0,0,0,
48.16056, 10:40:19.721,0,0,0,0,0,0,0,0,0,
48.19316, 10:40:19.753,0,0,0,0,0,0,0,0,0,
