Elapsed_Time, System_Time, Euler_Roll, Euler_Pitch, Euler_Yaw, Gyro_Roll, Gyro_Pitch, Gyro_Yaw, Accel_x, Accel_y, Accel_z
0.02, 18:26:07.826,0,0,0,0,0,0,0,0,0,
0.04, 18:26:07.908,0,0,0,0,0,0,0,0,0,
0.3733333, 18:26:08.463,0,0,0,0,0,0,0,0,0,
0.4244059, 18:26:08.510,0,0,0,0,0,0,0,0,0,
0.4527187, 18:26:08.538,0,0,0,0,0,0,0,0,0,
0.4693827, 18:26:08.555,0,0,0,0,0,0,0,0,0,
0.4860493, 18:26:08.571,0,0,0,0,0,0,0,0,0,
0.5029626, 18:26:08.588,0,0,0,0,0,0,0,0,0,
0.5199902, 18:26:08.605,0,0,0,0,0,0,0,0,0,
0.5370847, 18:26:08.622,0,0,0,0,0,0,0,0,0,
0.5538533, 18:26:08.640,0,0,0,0,0,0,0,0,0,
0.5705714, 18:26:08.656,0,0,0,0,0,0,0,0,0,
0.5875334, 18:26:08.673,0,0,0,0,0,0,0,0,0,
0.6042123, 18:26:08.690,0,0,0,0,0,0,0,0,0,
0.6208802, 18:26:08.706,0,0,0,0,0,0,0,0,0,
0.63769, 18:26:08.723,0,0,0,0,0,0,0,0,0,
0.6546499, 18:26:08.740,0,0,0,0,0,0,0,0,0,
0.671654, 18:26:08.757,0,0,0,0,0,0,0,0,0,
0.6887922, 18:26:08.774,0,0,0,0,0,0,0,0,0,
0.7058232, 18:26:08.791,0,0,0,0,0,0,0,0,0,
0.7225589, 18:26:08.808,0,0,0,0,0,0,0,0,0,
0.7395372, 18:26:08.824,0,0,0,0,0,0,0,0,0,
0.7562072, 18:26:08.842,0,0,0,0,0,0,0,0,0,
0.773147, 18:26:08.858,0,0,0,0,0,0,0,0,0,
0.790027, 18:26:08.876,0,0,0,0,0,0,0,0,0,
0.806688, 18:26:08.892,0,0,0,0,0,0,0,0,0,
0.8235008, 18:26:08.909,0,0,0,0,0,0,0,0,0,
0.840275, 18:26:08.926,0,0,0,0,0,0,0,0,0,
0.8570217, 18:26:08.942,0,0,0,0,0,0,0,0,0,
0.8738922, 18:26:08.959,0,0,0,0,0,0,0,0,0,
0.8905606, 18:26:08.976,0,0,0,0,0,0,0,0,0,
0.9075321, 18:26:08.993,0,0,0,0,0,0,0,0,0,
0.9245788, 18:26:09.010,0,0,0,0,0,0,0,0,0,
0.9412461, 18:26:09.027,0,0,0,0,0,0,0,0,0,
0.9579874, 18:26:09.043,0,0,0,0,0,0,0,0,0,
0.9746544, 18:26:09.060,0,0,0,0,0,0,0,0,0,
0.9913828, 18:26:09.077,0,0,0,0,0,0,0,0,0,
1.008485, 18:26:09.094,0,0,0,0,0,0,0,0,0,
1.02528, 18:26:09.111,0,0,0,0,0,0,0,0,0,
1.042032, 18:26:09.127,0,0,0,0,0,0,0,0,0,
1.058834, 18:26:09.144,0,0,0,0,0,0,0,0,0,
1.075499, 18:26:09.161,0,0,0,0,0,0,0,0,0,
1.092591, 18:26:09.178,0,0,0,0,0,0,0,0,0,
1.109808, 18:26:09.195,0,0,0,0,0,0,0,0,0,
1.126872, 18:26:09.212,0,0,0,0,0,0,0,0,0,
1.143806, 18:26:09.229,0,0,0,0,0,0,0,0,0,
1.160472, 18:26:09.246,0,0,0,0,0,0,0,0,0,
1.177272, 18:26:09.262,0,0,0,0,0,0,0,0,0,
1.193943, 18:26:09.280,0,0,0,0,0,0,0,0,0,
1.21238, 18:26:09.298,0,0,0,0,0,0,0,0,0,
1.229373, 18:26:09.315,0,0,0,0,0,0,0,0,0,
1.246039, 18:26:09.331,0,0,0,0,0,0,0,0,0,
1.263306, 18:26:09.349,0,0,0,0,0,0,0,0,0,
1.280316, 18:26:09.365,0,0,0,0,0,0,0,0,0,
1.297006, 18:26:09.382,0,0,0,0,0,0,0,0,0,
1.316384, 18:26:09.401,0,0,0,0,0,0,0,0,0,
1.333305, 18:26:09.418,0,0,0,0,0,0,0,0,0,
1.350134, 18:26:09.436,0,0,0,0,0,0,0,0,0,
1.366801, 18:26:09.452,0,0,0,0,0,0,0,0,0,
1.383477, 18:26:09.469,0,0,0,0,0,0,0,0,0,
1.40023, 18:26:09.485,0,0,0,0,0,0,0,0,0,
1.416895, 18:26:09.502,0,0,0,0,0,0,0,0,0,
1.433572, 18:26:09.520,0,0,0,0,0,0,0,0,0,
1.450254, 18:26:09.535,0,0,0,0,0,0,0,0,0,
1.467175, 18:26:09.552,0,0,0,0,0,0,0,0,0,
1.484043, 18:26:09.569,0,0,0,0,0,0,0,0,0,
1.501232, 18:26:09.586,0,0,0,0,0,0,0,0,0,
1.51855, 18:26:09.603,0,0,0,0,0,0,0,0,0,
1.535812, 18:26:09.621,0,0,0,0,0,0,0,0,0,
1.55248, 18:26:09.638,0,0,0,0,0,0,0,0,0,
1.569199, 18:26:09.654,0,0,0,0,0,0,0,0,0,
1.586387, 18:26:09.671,0,0,0,0,0,0,0,0,0,
1.603462, 18:26:09.689,0,0,0,0,0,0,0,0,0,
1.620504, 18:26:09.706,0,0,0,0,0,0,0,0,0,
1.637743, 18:26:09.723,0,0,0,0,0,0,0,0,0,
1.654891, 18:26:09.740,0,0,0,0,0,0,0,0,0,
1.671916, 18:26:09.757,0,0,0,0,0,0,0,0,0,
1.688585, 18:26:09.774,0,0,0,0,0,0,0,0,0,
1.705362, 18:26:09.790,0,0,0,0,0,0,0,0,0,
1.722059, 18:26:09.807,0,0,0,0,0,0,0,0,0,
1.738955, 18:26:09.824,0,0,0,0,0,0,0,0,0,
1.755863, 18:26:09.841,0,0,0,0,0,0,0,0,0,
1.772688, 18:26:09.858,0,0,0,0,0,0,0,0,0,
1.789371, 18:26:09.875,0,0,0,0,0,0,0,0,0,
1.806238, 18:26:09.891,0,0,0,0,0,0,0,0,0,
1.823471, 18:26:09.909,0,0,0,0,0,0,0,0,0,
1.840135, 18:26:09.925,0,0,0,0,0,0,0,0,0,
1.857301, 18:26:09.942,0,0,0,0,0,0,0,0,0,
1.874287, 18:26:09.959,0,0,0,0,0,0,0,0,0,
1.890966, 18:26:09.976,0,0,0,0,0,0,0,0,0,
1.907929, 18:26:09.993,0,0,0,0,0,0,0,0,0,
1.924643, 18:26:10.010,0,0,0,0,0,0,0,0,0,
1.941561, 18:26:10.027,0,0,0,0,0,0,0,0,0,
1.958954, 18:26:10.044,0,0,0,0,0,0,0,0,0,
1.976482, 18:26:10.062,0,0,0,0,0,0,0,0,0,
1.993195, 18:26:10.078,0,0,0,0,0,0,0,0,0,
2.010516, 18:26:10.096,0,0,0,0,0,0,0,0,0,
2.027296, 18:26:10.113,0,0,0,0,0,0,0,0,0,
2.044333, 18:26:10.129,0,0,0,0,0,0,0,0,0,
2.061532, 18:26:10.147,0,0,0,0,0,0,0,0,0,
2.078903, 18:26:10.164,0,0,0,0,0,0,0,0,0,
2.095808, 18:26:10.181,0,0,0,0,0,0,0,0,0,
2.112941, 18:26:10.198,0,0,0,0,0,0,0,0,0,
2.130185, 18:26:10.215,0,0,0,0,0,0,0,0,0,
2.147097, 18:26:10.232,0,0,0,0,0,0,0,0,0,
2.164034, 18:26:10.249,0,0,0,0,0,0,0,0,0,
2.180702, 18:26:10.266,0,0,0,0,0,0,0,0,0,
2.200306, 18:26:10.285,0,0,0,0,0,0,0,0,0,
2.219696, 18:26:10.304,0,0,0,0,0,0,0,0,0,
2.236675, 18:26:10.322,0,0,0,0,0,0,0,0,0,
2.253427, 18:26:10.339,0,0,0,0,0,0,0,0,0,
2.270104, 18:26:10.355,0,0,0,0,0,0,0,0,0,
2.287152, 18:26:10.372,0,0,0,0,0,0,0,0,0,
2.303818, 18:26:10.390,0,0,0,0,0,0,0,0,0,
2.320894, 18:26:10.406,0,0,0,0,0,0,0,0,0,
2.337777, 18:26:10.423,0,0,0,0,0,0,0,0,0,
2.355181, 18:26:10.440,0,0,0,0,0,0,0,0,0,
2.372181, 18:26:10.457,0,0,0,0,0,0,0,0,0,
2.389406, 18:26:10.475,0,0,0,0,0,0,0,0,0,
2.406234, 18:26:10.491,0,0,0,0,0,0,0,0,0,
2.422902, 18:26:10.508,0,0,0,0,0,0,0,0,0,
2.439937, 18:26:10.525,0,0,0,0,0,0,0,0,0,
2.457139, 18:26:10.542,0,0,0,0,0,0,0,0,0,
2.473839, 18:26:10.559,0,0,0,0,0,0,0,0,0,
2.491264, 18:26:10.577,0,0,0,0,0,0,0,0,0,
2.508312, 18:26:10.593,0,0,0,0,0,0,0,0,0,
2.525175, 18:26:10.610,0,0,0,0,0,0,0,0,0,
2.542449, 18:26:10.628,0,0,0,0,0,0,0,0,0,
2.559173, 18:26:10.644,0,0,0,0,0,0,0,0,0,
2.575841, 18:26:10.661,0,0,0,0,0,0,0,0,0,
2.592777, 18:26:10.678,0,0,0,0,0,0,0,0,0,
2.609493, 18:26:10.695,0,0,0,0,0,0,0,0,0,
2.626781, 18:26:10.712,0,0,0,0,0,0,0,0,0,
2.643448, 18:26:10.729,0,0,0,0,0,0,0,0,0,
2.66401, 18:26:10.749,0,0,0,0,0,0,0,0,0,
2.682573, 18:26:10.768,0,0,0,0,0,0,0,0,0,
2.701024, 18:26:10.786,0,0,0,0,0,0,0,0,0,
2.717692, 18:26:10.802,0,0,0,0,0,0,0,0,0,
2.734358, 18:26:10.820,0,0,0,0,0,0,0,0,0,
2.751487, 18:26:10.837,0,0,0,0,0,0,0,0,0,
2.76825, 18:26:10.853,0,0,0,0,0,0,0,0,0,
2.785141, 18:26:10.871,0,0,0,0,0,0,0,0,0,
2.801802, 18:26:10.887,0,0,0,0,0,0,0,0,0,
2.81847, 18:26:10.904,0,0,0,0,0,0,0,0,0,
2.835171, 18:26:10.920,0,0,0,0,0,0,0,0,0,
2.852179, 18:26:10.937,0,0,0,0,0,0,0,0,0,
2.868844, 18:26:10.954,0,0,0,0,0,0,0,0,0,
2.885525, 18:26:10.971,0,0,0,0,0,0,0,0,0,
2.902371, 18:26:10.989,0,0,0,0,0,0,0,0,0,
2.919214, 18:26:11.004,0,0,0,0,0,0,0,0,0,
2.936188, 18:26:11.022,0,0,0,0,0,0,0,0,0,
2.953064, 18:26:11.038,0,0,0,0,0,0,0,0,0,
2.970023, 18:26:11.055,0,0,0,0,0,0,0,0,0,
2.986691, 18:26:11.072,0,0,0,0,0,0,0,0,0,
3.003451, 18:26:11.089,0,0,0,0,0,0,0,0,0,
3.020553, 18:26:11.106,0,0,0,0,0,0,0,0,0,
3.037218, 18:26:11.122,0,0,0,0,0,0,0,0,0,
3.054549, 18:26:11.140,0,0,0,0,0,0,0,0,0,
3.071216, 18:26:11.156,0,0,0,0,0,0,0,0,0,
3.088356, 18:26:11.174,0,0,0,0,0,0,0,0,0,
3.105022, 18:26:11.190,0,0,0,0,0,0,0,0,0,
3.12169, 18:26:11.207,0,0,0,0,0,0,0,0,0,
3.139072, 18:26:11.224,0,0,0,0,0,0,0,0,0,
3.155739, 18:26:11.241,0,0,0,0,0,0,0,0,0,
3.172521, 18:26:11.258,0,0,0,0,0,0,0,0,0,
3.189709, 18:26:11.275,0,0,0,0,0,0,0,0,0,
3.206424, 18:26:11.292,0,0,0,0,0,0,0,0,0,
3.223089, 18:26:11.308,0,0,0,0,0,0,0,0,0,
3.240126, 18:26:11.325,0,0,0,0,0,0,0,0,0,
3.256973, 18:26:11.342,0,0,0,0,0,0,0,0,0,
3.274007, 18:26:11.359,0,0,0,0,0,0,0,0,0,
3.29089, 18:26:11.377,0,0,0,0,0,0,0,0,0,
3.307816, 18:26:11.394,0,0,0,0,0,0,0,0,0,
3.324484, 18:26:11.410,0,0,0,0,0,0,0,0,0,
3.341692, 18:26:11.427,0,0,0,0,0,0,0,0,0,
3.359091, 18:26:11.444,0,0,0,0,0,0,0,0,0,
3.376121, 18:26:11.461,0,0,0,0,0,0,0,0,0,
3.393314, 18:26:11.479,0,0,0,0,0,0,0,0,0,
3.410653, 18:26:11.496,0,0,0,0,0,0,0,0,0,
3.42732, 18:26:11.513,0,0,0,0,0,0,0,0,0,
3.443993, 18:26:11.529,0,0,0,0,0,0,0,0,0,
3.460826, 18:26:11.546,0,0,0,0,0,0,0,0,0,
3.478122, 18:26:11.563,0,0,0,0,0,0,0,0,0,
3.495242, 18:26:11.581,0,0,0,0,0,0,0,0,0,
3.512036, 18:26:11.597,0,0,0,0,0,0,0,0,0,
3.529209, 18:26:11.615,0,0,0,0,0,0,0,0,0,
3.546219, 18:26:11.632,0,0,0,0,0,0,0,0,0,
3.563044, 18:26:11.648,0,0,0,0,0,0,0,0,0,
3.580007, 18:26:11.666,0,0,0,0,0,0,0,0,0,
3.597174, 18:26:11.682,0,0,0,0,0,0,0,0,0,
3.613955, 18:26:11.699,0,0,0,0,0,0,0,0,0,
3.630831, 18:26:11.716,0,0,0,0,0,0,0,0,0,
3.6475, 18:26:11.733,0,0,0,0,0,0,0,0,0,
3.664552, 18:26:11.750,0,0,0,0,0,0,0,0,0,
3.68184, 18:26:11.768,0,0,0,0,0,0,0,0,0,
3.698691, 18:26:11.784,0,0,0,0,0,0,0,0,0,
3.715519, 18:26:11.801,0,0,0,0,0,0,0,0,0,
3.732522, 18:26:11.818,0,0,0,0,0,0,0,0,0,
3.749781, 18:26:11.835,0,0,0,0,0,0,0,0,0,
3.766566, 18:26:11.852,0,0,0,0,0,0,0,0,0,
3.783456, 18:26:11.869,0,0,0,0,0,0,0,0,0,
3.800123, 18:26:11.886,0,0,0,0,0,0,0,0,0,
3.816793, 18:26:11.902,0,0,0,0,0,0,0,0,0,
3.833459, 18:26:11.919,0,0,0,0,0,0,0,0,0,
3.850849, 18:26:11.936,0,0,0,0,0,0,0,0,0,
3.867646, 18:26:11.953,0,0,0,0,0,0,0,0,0,
3.884313, 18:26:11.970,0,0,0,0,0,0,0,0,0,
3.901007, 18:26:11.987,0,0,0,0,0,0,0,0,0,
3.917715, 18:26:12.003,0,0,0,0,0,0,0,0,0,
3.934501, 18:26:12.020,0,0,0,0,0,0,0,0,0,
3.951379, 18:26:12.037,0,0,0,0,0,0,0,0,0,
3.968045, 18:26:12.054,0,0,0,0,0,0,0,0,0,
3.985239, 18:26:12.071,0,0,0,0,0,0,0,0,0,
4.001904, 18:26:12.088,0,0,0,0,0,0,0,0,0,
4.018589, 18:26:12.104,0,0,0,0,0,0,0,0,0,
4.035284, 18:26:12.121,0,0,0,0,0,0,0,0,0,
4.052028, 18:26:12.137,0,0,0,0,0,0,0,0,0,
4.068695, 18:26:12.154,0,0,0,0,0,0,0,0,0,
4.085363, 18:26:12.171,0,0,0,0,0,0,0,0,0,
4.10203, 18:26:12.188,0,0,0,0,0,0,0,0,0,
4.120437, 18:26:12.206,0,0,0,0,0,0,0,0,0,
4.137105, 18:26:12.222,0,0,0,0,0,0,0,0,0,
4.153803, 18:26:12.240,0,0,0,0,0,0,0,0,0,
4.17084, 18:26:12.256,0,0,0,0,0,0,0,0,0,
4.187584, 18:26:12.273,0,0,0,0,0,0,0,0,0,
4.204326, 18:26:12.290,0,0,0,0,0,0,0,0,0,
4.221555, 18:26:12.307,0,0,0,0,0,0,0,0,0,
4.238955, 18:26:12.324,0,0,0,0,0,0,0,0,0,
4.255931, 18:26:12.341,0,0,0,0,0,0,0,0,0,
4.272598, 18:26:12.358,0,0,0,0,0,0,0,0,0,
4.289861, 18:26:12.375,0,0,0,0,0,0,0,0,0,
4.306584, 18:26:12.392,0,0,0,0,0,0,0,0,0,
4.32344, 18:26:12.409,0,0,0,0,0,0,0,0,0,
4.340526, 18:26:12.426,0,0,0,0,0,0,0,0,0,
4.357779, 18:26:12.443,0,0,0,0,0,0,0,0,0,
4.374672, 18:26:12.460,0,0,0,0,0,0,0,0,0,
4.391462, 18:26:12.477,0,0,0,0,0,0,0,0,0,
4.408278, 18:26:12.493,0,0,0,0,0,0,0,0,0,
4.424945, 18:26:12.510,0,0,0,0,0,0,0,0,0,
4.441611, 18:26:12.527,0,0,0,0,0,0,0,0,0,
4.458306, 18:26:12.543,0,0,0,0,0,0,0,0,0,
4.475247, 18:26:12.561,0,0,0,0,0,0,0,0,0,
4.492294, 18:26:12.578,0,0,0,0,0,0,0,0,0,
4.509033, 18:26:12.594,0,0,0,0,0,0,0,0,0,
4.525702, 18:26:12.611,0,0,0,0,0,0,0,0,0,
4.542369, 18:26:12.628,0,0,0,0,0,0,0,0,0,
4.55923, 18:26:12.645,0,0,0,0,0,0,0,0,0,
4.575897, 18:26:12.661,0,0,0,0,0,0,0,0,0,
4.592645, 18:26:12.678,0,0,0,0,0,0,0,0,0,
4.609498, 18:26:12.695,0,0,0,0,0,0,0,0,0,
4.626318, 18:26:12.712,0,0,0,0,0,0,0,0,0,
4.643243, 18:26:12.729,0,0,0,0,0,0,0,0,0,
4.660311, 18:26:12.746,0,0,0,0,0,0,0,0,0,
4.676977, 18:26:12.762,0,0,0,0,0,0,0,0,0,
4.693738, 18:26:12.779,0,0,0,0,0,0,0,0,0,
4.711155, 18:26:12.796,0,0,0,0,0,0,0,0,0,
4.728069, 18:26:12.813,0,0,0,0,0,0,0,0,0,
4.74515, 18:26:12.830,0,0,0,0,0,0,0,0,0,
4.761816, 18:26:12.847,0,0,0,0,0,0,0,0,0,
4.778751, 18:26:12.864,0,0,0,0,0,0,0,0,0,
4.795722, 18:26:12.881,0,0,0,0,0,0,0,0,0,
4.812755, 18:26:12.898,0,0,0,0,0,0,0,0,0,
4.829782, 18:26:12.915,0,0,0,0,0,0,0,0,0,
4.846611, 18:26:12.932,0,0,0,0,0,0,0,0,0,
4.863473, 18:26:12.949,0,0,0,0,0,0,0,0,0,
4.880139, 18:26:12.965,0,0,0,0,0,0,0,0,0,
4.896807, 18:26:12.982,0,0,0,0,0,0,0,0,0,
4.913633, 18:26:12.999,0,0,0,0,0,0,0,0,0,
4.931015, 18:26:13.016,0,0,0,0,0,0,0,0,0,
4.948014, 18:26:13.033,0,0,0,0,0,0,0,0,0,
4.965077, 18:26:13.050,0,0,0,0,0,0,0,0,0,
4.981923, 18:26:13.067,0,0,0,0,0,0,0,0,0,
4.998591, 18:26:13.084,0,0,0,0,0,0,0,0,0,
5.01536, 18:26:13.101,0,0,0,0,0,0,0,0,0,
5.032335, 18:26:13.118,0,0,0,0,0,0,0,0,0,
5.049262, 18:26:13.135,0,0,0,0,0,0,0,0,0,
5.066588, 18:26:13.152,0,0,0,0,0,0,0,0,0,
5.083276, 18:26:13.169,0,0,0,0,0,0,0,0,0,
5.100409, 18:26:13.186,0,0,0,0,0,0,0,0,0,
5.117078, 18:26:13.202,0,0,0,0,0,0,0,0,0,
5.134411, 18:26:13.220,0,0,0,0,0,0,0,0,0,
5.151228, 18:26:13.237,0,0,0,0,0,0,0,0,0,
5.168283, 18:26:13.254,0,0,0,0,0,0,0,0,0,
5.184986, 18:26:13.271,0,0,0,0,0,0,0,0,0,
5.201952, 18:26:13.288,0,0,0,0,0,0,0,0,0,
5.218618, 18:26:13.304,0,0,0,0,0,0,0,0,0,
5.235286, 18:26:13.321,0,0,0,0,0,0,0,0,0,
5.252013, 18:26:13.338,0,0,0,0,0,0,0,0,0,
5.269215, 18:26:13.354,0,0,0,0,0,0,0,0,0,
5.285883, 18:26:13.371,0,0,0,0,0,0,0,0,0,
5.302794, 18:26:13.389,0,0,0,0,0,0,0,0,0,
5.320046, 18:26:13.405,0,0,0,0,0,0,0,0,0,
5.336721, 18:26:13.422,0,0,0,0,0,0,0,0,0,
5.354013, 18:26:13.439,0,0,0,0,0,0,0,0,0,
5.370787, 18:26:13.456,0,0,0,0,0,0,0,0,0,
5.387852, 18:26:13.473,0,0,0,0,0,0,0,0,0,
5.404996, 18:26:13.490,0,0,0,0,0,0,0,0,0,
5.421664, 18:26:13.507,0,0,0,0,0,0,0,0,0,
5.438495, 18:26:13.523,0,0,0,0,0,0,0,0,0,
5.455162, 18:26:13.540,0,0,0,0,0,0,0,0,0,
5.472198, 18:26:13.558,0,0,0,0,0,0,0,0,0,
5.488893, 18:26:13.574,0,0,0,0,0,0,0,0,0,
5.506002, 18:26:13.591,0,0,0,0,0,0,0,0,0,
5.52291, 18:26:13.608,0,0,0,0,0,0,0,0,0,
5.539696, 18:26:13.625,0,0,0,0,0,0,0,0,0,
5.55649, 18:26:13.642,0,0,0,0,0,0,0,0,0,
5.573571, 18:26:13.659,0,0,0,0,0,0,0,0,0,
5.59033, 18:26:13.676,0,0,0,0,0,0,0,0,0,
5.60716, 18:26:13.693,0,0,0,0,0,0,0,0,0,
5.623971, 18:26:13.709,0,0,0,0,0,0,0,0,0,
5.640859, 18:26:13.726,0,0,0,0,0,0,0,0,0,
5.658062, 18:26:13.743,0,0,0,0,0,0,0,0,0,
5.674947, 18:26:13.760,0,0,0,0,0,0,0,0,0,
5.691615, 18:26:13.777,0,0,0,0,0,0,0,0,0,
5.708282, 18:26:13.794,0,0,0,0,0,0,0,0,0,
5.72495, 18:26:13.810,0,0,0,0,0,0,0,0,0,
5.741658, 18:26:13.827,0,0,0,0,0,0,0,0,0,
5.75902, 18:26:13.844,0,0,0,0,0,0,0,0,0,
5.776065, 18:26:13.862,0,0,0,0,0,0,0,0,0,
5.792931, 18:26:13.878,0,0,0,0,0,0,0,0,0,
5.810191, 18:26:13.896,0,0,0,0,0,0,0,0,0,
5.827077, 18:26:13.913,0,0,0,0,0,0,0,0,0,
5.84381, 18:26:13.929,0,0,0,0,0,0,0,0,0,
5.860931, 18:26:13.946,0,0,0,0,0,0,0,0,0,
5.87824, 18:26:13.963,0,0,0,0,0,0,0,0,0,
5.894906, 18:26:13.980,0,0,0,0,0,0,0,0,0,
5.911894, 18:26:13.998,0,0,0,0,0,0,0,0,0,
5.928561, 18:26:14.014,0,0,0,0,0,0,0,0,0,
5.945628, 18:26:14.031,0,0,0,0,0,0,0,0,0,
5.962451, 18:26:14.048,0,0,0,0,0,0,0,0,0,
5.979357, 18:26:14.064,0,0,0,0,0,0,0,0,0,
5.99614, 18:26:14.081,0,0,0,0,0,0,0,0,0,
6.012907, 18:26:14.098,0,0,0,0,0,0,0,0,0,
6.029584, 18:26:14.115,0,0,0,0,0,0,0,0,0,
6.046251, 18:26:14.132,0,0,0,0,0,0,0,0,0,
6.063153, 18:26:14.149,0,0,0,0,0,0,0,0,0,
6.080158, 18:26:14.166,0,0,0,0,0,0,0,0,0,
6.097319, 18:26:14.182,0,0,0,0,0,0,0,0,0,
6.114646, 18:26:14.200,0,0,0,0,0,0,0,0,0,
6.131311, 18:26:14.217,0,0,0,0,0,0,0,0,0,
6.14798, 18:26:14.234,0,0,0,0,0,0,0,0,0,
6.165094, 18:26:14.250,0,0,0,0,0,0,0,0,0,
6.181765, 18:26:14.269,0,0,0,0,0,0,0,0,0,
6.198615, 18:26:14.284,0,0,0,0,0,0,0,0,0,
6.21577, 18:26:14.301,0,0,0,0,0,0,0,0,0,
6.232533, 18:26:14.322,0,0,0,0,0,0,0,0,0,
6.249209, 18:26:14.335,0,0,0,0,0,0,0,0,0,
6.266457, 18:26:14.352,0,0,0,0,0,0,0,0,0,
6.283336, 18:26:14.369,0,0,0,0,0,0,0,0,0,
6.300444, 18:26:14.386,0,0,0,0,0,0,0,0,0,
6.317111, 18:26:14.403,0,0,0,0,0,0,0,0,0,
6.334287, 18:26:14.420,0,0,0,0,0,0,0,0,0,
6.351012, 18:26:14.436,0,0,0,0,0,0,0,0,0,
6.367692, 18:26:14.453,0,0,0,0,0,0,0,0,0,
6.384359, 18:26:14.470,0,0,0,0,0,0,0,0,0,
6.401453, 18:26:14.487,0,0,0,0,0,0,0,0,0,
6.418319, 18:26:14.503,0,0,0,0,0,0,0,0,0,
6.435085, 18:26:14.521,0,0,0,0,0,0,0,0,0,
6.451781, 18:26:14.537,0,0,0,0,0,0,0,0,0,
6.468448, 18:26:14.554,0,0,0,0,0,0,0,0,0,
6.485117, 18:26:14.571,0,0,0,0,0,0,0,0,0,
6.501796, 18:26:14.587,0,0,0,0,0,0,0,0,0,
6.518463, 18:26:14.604,0,0,0,0,0,0,0,0,0,
6.53535, 18:26:14.621,0,0,0,0,0,0,0,0,0,
6.552032, 18:26:14.637,0,0,0,0,0,0,0,0,0,
6.568683, 18:26:14.654,0,0,0,0,0,0,0,0,0,
6.58538, 18:26:14.671,0,0,0,0,0,0,0,0,0,
6.602191, 18:26:14.688,0,0,0,0,0,0,0,0,0,
6.619491, 18:26:14.705,0,0,0,0,0,0,0,0,0,
6.636605, 18:26:14.722,0,0,0,0,0,0,0,0,0,
6.653322, 18:26:14.739,0,0,0,0,0,0,0,0,0,
6.670598, 18:26:14.756,0,0,0,0,0,0,0,0,0,
6.687555, 18:26:14.773,0,0,0,0,0,0,0,0,0,
6.704272, 18:26:14.790,0,0,0,0,0,0,0,0,0,
6.720938, 18:26:14.806,0,0,0,0,0,0,0,0,0,
6.737938, 18:26:14.823,0,0,0,0,0,0,0,0,0,
6.754621, 18:26:14.840,0,0,0,0,0,0,0,0,0,
6.77165, 18:26:14.857,0,0,0,0,0,0,0,0,0,
6.788372, 18:26:14.874,0,0,0,0,0,0,0,0,0,
6.805106, 18:26:14.891,0,0,0,0,0,0,0,0,0,
6.821773, 18:26:14.907,0,0,0,0,0,0,0,0,0,
6.838439, 18:26:14.923,0,0,0,0,0,0,0,0,0,
6.855309, 18:26:14.941,0,0,0,0,0,0,0,0,0,
6.872346, 18:26:14.958,0,0,0,0,0,0,0,0,0,
6.889013, 18:26:14.975,0,0,0,0,0,0,0,0,0,
6.908263, 18:26:14.994,0,0,0,0,0,0,0,0,0,
6.924932, 18:26:15.011,0,0,0,0,0,0,0,0,0,
6.941597, 18:26:15.027,0,0,0,0,0,0,0,0,0,
6.958337, 18:26:15.043,0,0,0,0,0,0,0,0,0,
6.975209, 18:26:15.061,0,0,0,0,0,0,0,0,0,
6.992215, 18:26:15.078,0,0,0,0,0,0,0,0,0,
7.008889, 18:26:15.094,0,0,0,0,0,0,0,0,0,
7.025871, 18:26:15.111,0,0,0,0,0,0,0,0,0,
7.042696, 18:26:15.128,0,0,0,0,0,0,0,0,0,
7.059643, 18:26:15.145,0,0,0,0,0,0,0,0,0,
7.07679, 18:26:15.162,0,0,0,0,0,0,0,0,0,
7.093553, 18:26:15.179,0,0,0,0,0,0,0,0,0,
7.110592, 18:26:15.196,0,0,0,0,0,0,0,0,0,
7.127561, 18:26:15.213,0,0,0,0,0,0,0,0,0,
7.144717, 18:26:15.230,0,0,0,0,0,0,0,0,0,
7.16154, 18:26:15.247,0,0,0,0,0,0,0,0,0,
7.178363, 18:26:15.264,0,0,0,0,0,0,0,0,0,
7.195288, 18:26:15.281,0,0,0,0,0,0,0,0,0,
7.212311, 18:26:15.298,0,0,0,0,0,0,0,0,0,
7.229216, 18:26:15.315,0,0,0,0,0,0,0,0,0,
7.245993, 18:26:15.331,0,0,0,0,0,0,0,0,0,
7.262847, 18:26:15.348,0,0,0,0,0,0,0,0,0,
7.279812, 18:26:15.365,0,0,0,0,0,0,0,0,0,
7.296958, 18:26:15.382,0,0,0,0,0,0,0,0,0,
7.313623, 18:26:15.399,0,0,0,0,0,0,0,0,0,
7.330891, 18:26:15.416,0,0,0,0,0,0,0,0,0,
7.347558, 18:26:15.433,0,0,0,0,0,0,0,0,0,
7.364676, 18:26:15.450,0,0,0,0,0,0,0,0,0,
7.38192, 18:26:15.468,0,0,0,0,0,0,0,0,0,
7.39875, 18:26:15.484,0,0,0,0,0,0,0,0,0,
7.415684, 18:26:15.501,0,0,0,0,0,0,0,0,0,
7.432564, 18:26:15.518,0,0,0,0,0,0,0,0,0,
7.44933, 18:26:15.535,0,0,0,0,0,0,0,0,0,
7.466145, 18:26:15.552,0,0,0,0,0,0,0,0,0,
7.483024, 18:26:15.569,0,0,0,0,0,0,0,0,0,
7.499726, 18:26:15.585,0,0,0,0,0,0,0,0,0,
7.516393, 18:26:15.602,0,0,0,0,0,0,0,0,0,
7.533183, 18:26:15.619,0,0,0,0,0,0,0,0,0,
7.550066, 18:26:15.636,0,0,0,0,0,0,0,0,0,
7.566993, 18:26:15.653,0,0,0,0,0,0,0,0,0,
7.58366, 18:26:15.670,0,0,0,0,0,0,0,0,0,
7.600734, 18:26:15.687,0,0,0,0,0,0,0,0,0,
7.617435, 18:26:15.703,0,0,0,0,0,0,0,0,0,
7.634269, 18:26:15.720,0,0,0,0,0,0,0,0,0,
7.65116, 18:26:15.737,0,0,0,0,0,0,0,0,0,
7.667826, 18:26:15.754,0,0,0,0,0,0,0,0,0,
7.684494, 18:26:15.771,0,0,0,0,0,0,0,0,0,
7.701191, 18:26:15.787,0,0,0,0,0,0,0,0,0,
7.718101, 18:26:15.803,0,0,0,0,0,0,0,0,0,
7.734952, 18:26:15.821,0,0,0,0,0,0,0,0,0,
7.752035, 18:26:15.838,0,0,0,0,0,0,0,0,0,
7.768702, 18:26:15.854,0,0,0,0,0,0,0,0,0,
7.785805, 18:26:15.872,0,0,0,0,0,0,0,0,0,
7.802656, 18:26:15.888,0,0,0,0,0,0,0,0,0,
7.819334, 18:26:15.905,0,0,0,0,0,0,0,0,0,
7.83615, 18:26:15.922,0,0,0,0,0,0,0,0,0,
7.853113, 18:26:15.939,0,0,0,0,0,0,0,0,0,
7.870285, 18:26:15.956,0,0,0,0,0,0,0,0,0,
7.887085, 18:26:15.973,0,0,0,0,0,0,0,0,0,
7.903951, 18:26:15.990,0,0,0,0,0,0,0,0,0,
7.920746, 18:26:16.006,0,0,0,0,0,0,0,0,0,
7.937412, 18:26:16.023,0,0,0,0,0,0,0,0,0,
7.954081, 18:26:16.040,0,0,0,0,0,0,0,0,0,
7.970988, 18:26:16.057,0,0,0,0,0,0,0,0,0,
7.988046, 18:26:16.074,0,0,0,0,0,0,0,0,0,
8.005003, 18:26:16.091,0,0,0,0,0,0,0,0,0,
8.022286, 18:26:16.108,0,0,0,0,0,0,0,0,0,
8.039247, 18:26:16.124,0,0,0,0,0,0,0,0,0,
8.056252, 18:26:16.142,0,0,0,0,0,0,0,0,0,
8.073255, 18:26:16.159,0,0,0,0,0,0,0,0,0,
8.092337, 18:26:16.178,0,0,0,0,0,0,0,0,0,
8.109169, 18:26:16.195,0,0,0,0,0,0,0,0,0,
8.126099, 18:26:16.212,0,0,0,0,0,0,0,0,0,
8.143139, 18:26:16.229,0,0,0,0,0,0,0,0,0,
8.160153, 18:26:16.246,0,0,0,0,0,0,0,0,0,
8.177329, 18:26:16.262,0,0,0,0,0,0,0,0,0,
8.193997, 18:26:16.280,0,0,0,0,0,0,0,0,0,
8.210886, 18:26:16.297,0,0,0,0,0,0,0,0,0,
8.227554, 18:26:16.313,0,0,0,0,0,0,0,0,0,
8.24422, 18:26:16.330,0,0,0,0,0,0,0,0,0,
8.260886, 18:26:16.346,0,0,0,0,0,0,0,0,0,
8.277691, 18:26:16.363,0,0,0,0,0,0,0,0,0,
8.295035, 18:26:16.381,0,0,0,0,0,0,0,0,0,
8.311701, 18:26:16.397,0,0,0,0,0,0,0,0,0,
8.328368, 18:26:16.414,0,0,0,0,0,0,0,0,0,
8.345048, 18:26:16.431,0,0,0,0,0,0,0,0,0,
8.362207, 18:26:16.448,0,0,0,0,0,0,0,0,0,
8.378957, 18:26:16.464,0,0,0,0,0,0,0,0,0,
8.395639, 18:26:16.481,0,0,0,0,0,0,0,0,0,
8.412337, 18:26:16.498,0,0,0,0,0,0,0,0,0,
8.429459, 18:26:16.515,0,0,0,0,0,0,0,0,0,
8.446186, 18:26:16.532,0,0,0,0,0,0,0,0,0,
8.463116, 18:26:16.549,0,0,0,0,0,0,0,0,0,
8.480132, 18:26:16.566,0,0,0,0,0,0,0,0,0,
8.497295, 18:26:16.583,0,0,0,0,0,0,0,0,0,
8.514586, 18:26:16.600,0,0,0,0,0,0,0,0,0,
8.531525, 18:26:16.617,0,0,0,0,0,0,0,0,0,
8.5486, 18:26:16.634,0,0,0,0,0,0,0,0,0,
8.565545, 18:26:16.651,0,0,0,0,0,0,0,0,0,
8.58237, 18:26:16.669,0,0,0,0,0,0,0,0,0,
8.599115, 18:26:16.684,0,0,0,0,0,0,0,0,0,
8.615899, 18:26:16.702,0,0,0,0,0,0,0,0,0,
8.632569, 18:26:16.718,0,0,0,0,0,0,0,0,0,
8.649239, 18:26:16.735,0,0,0,0,0,0,0,0,0,
8.666348, 18:26:16.752,0,0,0,0,0,0,0,0,0,
8.683307, 18:26:16.770,0,0,0,0,0,0,0,0,0,
8.70005, 18:26:16.786,0,0,0,0,0,0,0,0,0,
8.71675, 18:26:16.802,0,0,0,0,0,0,0,0,0,
8.734005, 18:26:16.820,0,0,0,0,0,0,0,0,0,
8.750693, 18:26:16.836,0,0,0,0,0,0,0,0,0,
8.767432, 18:26:16.853,0,0,0,0,0,0,0,0,0,
8.784531, 18:26:16.871,0,0,0,0,0,0,0,0,0,
8.801458, 18:26:16.887,0,0,0,0,0,0,0,0,0,
8.818126, 18:26:16.903,0,0,0,0,0,0,0,0,0,
8.834976, 18:26:16.921,0,0,0,0,0,0,0,0,0,
8.851659, 18:26:16.937,0,0,0,0,0,0,0,0,0,
8.868326, 18:26:16.954,0,0,0,0,0,0,0,0,0,
8.884993, 18:26:16.971,0,0,0,0,0,0,0,0,0,
8.901732, 18:26:16.988,0,0,0,0,0,0,0,0,0,
8.918601, 18:26:17.004,0,0,0,0,0,0,0,0,0,
8.935269, 18:26:17.021,0,0,0,0,0,0,0,0,0,
8.952072, 18:26:17.038,0,0,0,0,0,0,0,0,0,
8.96874, 18:26:17.055,0,0,0,0,0,0,0,0,0,
8.985807, 18:26:17.072,0,0,0,0,0,0,0,0,0,
9.002521, 18:26:17.088,0,0,0,0,0,0,0,0,0,
9.019236, 18:26:17.105,0,0,0,0,0,0,0,0,0,
9.036212, 18:26:17.122,0,0,0,0,0,0,0,0,0,
9.05345, 18:26:17.139,0,0,0,0,0,0,0,0,0,
9.070193, 18:26:17.156,0,0,0,0,0,0,0,0,0,
9.087102, 18:26:17.173,0,0,0,0,0,0,0,0,0,
9.103768, 18:26:17.189,0,0,0,0,0,0,0,0,0,
9.120918, 18:26:17.207,0,0,0,0,0,0,0,0,0,
9.138165, 18:26:17.223,0,0,0,0,0,0,0,0,0,
9.154923, 18:26:17.241,0,0,0,0,0,0,0,0,0,
9.171854, 18:26:17.257,0,0,0,0,0,0,0,0,0,
9.188606, 18:26:17.274,0,0,0,0,0,0,0,0,0,
9.205348, 18:26:17.291,0,0,0,0,0,0,0,0,0,
9.222047, 18:26:17.308,0,0,0,0,0,0,0,0,0,
9.238941, 18:26:17.324,0,0,0,0,0,0,0,0,0,
9.255923, 18:26:17.341,0,0,0,0,0,0,0,0,0,
9.27285, 18:26:17.358,0,0,0,0,0,0,0,0,0,
9.289517, 18:26:17.375,0,0,0,0,0,0,0,0,0,
9.306183, 18:26:17.392,0,0,0,0,0,0,0,0,0,
9.32294, 18:26:17.409,0,0,0,0,0,0,0,0,0,
9.339952, 18:26:17.425,0,0,0,0,0,0,0,0,0,
9.357053, 18:26:17.443,0,0,0,0,0,0,0,0,0,
9.374197, 18:26:17.460,0,0,0,0,0,0,0,0,0,
9.391031, 18:26:17.477,0,0,0,0,0,0,0,0,0,
9.408041, 18:26:17.494,0,0,0,0,0,0,0,0,0,
9.424707, 18:26:17.510,0,0,0,0,0,0,0,0,0,
9.441373, 18:26:17.527,0,0,0,0,0,0,0,0,0,
9.458174, 18:26:17.543,0,0,0,0,0,0,0,0,0,
9.474912, 18:26:17.561,0,0,0,0,0,0,0,0,0,
9.491816, 18:26:17.577,0,0,0,0,0,0,0,0,0,
9.508482, 18:26:17.594,0,0,0,0,0,0,0,0,0,
9.52529, 18:26:17.611,0,0,0,0,0,0,0,0,0,
9.542092, 18:26:17.628,0,0,0,0,0,0,0,0,0,
9.558929, 18:26:17.644,0,0,0,0,0,0,0,0,0,
9.575596, 18:26:17.661,0,0,0,0,0,0,0,0,0,
9.592457, 18:26:17.678,0,0,0,0,0,0,0,0,0,
9.609605, 18:26:17.695,0,0,0,0,0,0,0,0,0,
9.626272, 18:26:17.712,0,0,0,0,0,0,0,0,0,
9.64294, 18:26:17.729,0,0,0,0,0,0,0,0,0,
9.659925, 18:26:17.745,0,0,0,0,0,0,0,0,0,
9.676853, 18:26:17.762,0,0,0,0,0,0,0,0,0,
9.69357, 18:26:17.779,0,0,0,0,0,0,0,0,0,
9.710432, 18:26:17.796,0,0,0,0,0,0,0,0,0,
9.727375, 18:26:17.813,0,0,0,0,0,0,0,0,0,
9.744178, 18:26:17.830,0,0,0,0,0,0,0,0,0,
9.761342, 18:26:17.847,0,0,0,0,0,0,0,0,0,
9.778008, 18:26:17.863,0,0,0,0,0,0,0,0,0,
9.79485, 18:26:17.880,0,0,0,0,0,0,0,0,0,
9.811773, 18:26:17.898,0,0,0,0,0,0,0,0,0,
9.82878, 18:26:17.914,0,0,0,0,0,0,0,0,0,
9.845482, 18:26:17.931,0,0,0,0,0,0,0,0,0,
9.862286, 18:26:17.948,0,0,0,0,0,0,0,0,0,
9.879247, 18:26:17.964,0,0,0,0,0,0,0,0,0,
9.896292, 18:26:17.982,0,0,0,0,0,0,0,0,0,
9.912958, 18:26:17.999,0,0,0,0,0,0,0,0,0,
9.929786, 18:26:18.016,0,0,0,0,0,0,0,0,0,
9.946454, 18:26:18.032,0,0,0,0,0,0,0,0,0,
9.963163, 18:26:18.049,0,0,0,0,0,0,0,0,0,
9.979936, 18:26:18.065,0,0,0,0,0,0,0,0,0,
9.997041, 18:26:18.083,0,0,0,0,0,0,0,0,0,
10.0143, 18:26:18.100,0,0,0,0,0,0,0,0,0,
10.03119, 18:26:18.117,0,0,0,0,0,0,0,0,0,
10.04798, 18:26:18.134,0,0,0,0,0,0,0,0,0,
10.06467, 18:26:18.150,0,0,0,0,0,0,0,0,0,
10.08133, 18:26:18.167,0,0,0,0,0,0,0,0,0,
10.09815, 18:26:18.183,0,0,0,0,0,0,0,0,0,
10.11495, 18:26:18.201,0,0,0,0,0,0,0,0,0,
10.13161, 18:26:18.217,0,0,0,0,0,0,0,0,0,
10.14854, 18:26:18.235,0,0,0,0,0,0,0,0,0,
10.16535, 18:26:18.251,0,0,0,0,0,0,0,0,0,
10.18221, 18:26:18.268,0,0,0,0,0,0,0,0,0,
10.19911, 18:26:18.284,0,0,0,0,0,0,0,0,0,
10.2158, 18:26:18.302,0,0,0,0,0,0,0,0,0,
10.23294, 18:26:18.318,0,0,0,0,0,0,0,0,0,
10.24977, 18:26:18.335,0,0,0,0,0,0,0,0,0,
10.26654, 18:26:18.352,0,0,0,0,0,0,0,0,0,
10.28325, 18:26:18.370,0,0,0,0,0,0,0,0,0,
10.30032, 18:26:18.386,0,0,0,0,0,0,0,0,0,
10.317, 18:26:18.403,0,0,0,0,0,0,0,0,0,
10.33366, 18:26:18.419,0,0,0,0,0,0,0,0,0,
10.35223, 18:26:18.438,0,0,0,0,0,0,0,0,0,
10.36899, 18:26:18.455,0,0,0,0,0,0,0,0,0,
10.38566, 18:26:18.471,0,0,0,0,0,0,0,0,0,
10.40249, 18:26:18.488,0,0,0,0,0,0,0,0,0,
10.41917, 18:26:18.504,0,0,0,0,0,0,0,0,0,
10.43583, 18:26:18.521,0,0,0,0,0,0,0,0,0,
10.45251, 18:26:18.538,0,0,0,0,0,0,0,0,0,
10.46956, 18:26:18.555,0,0,0,0,0,0,0,0,0,
10.48623, 18:26:18.572,0,0,0,0,0,0,0,0,0,
10.50293, 18:26:18.589,0,0,0,0,0,0,0,0,0,
10.5196, 18:26:18.605,0,0,0,0,0,0,0,0,0,
10.53632, 18:26:18.622,0,0,0,0,0,0,0,0,0,
10.55299, 18:26:18.639,0,0,0,0,0,0,0,0,0,
10.56965, 18:26:18.655,0,0,0,0,0,0,0,0,0,
10.58648, 18:26:18.672,0,0,0,0,0,0,0,0,0,
10.60343, 18:26:18.689,0,0,0,0,0,0,0,0,0,
10.62044, 18:26:18.706,0,0,0,0,0,0,0,0,0,
10.63729, 18:26:18.722,0,0,0,0,0,0,0,0,0,
10.65419, 18:26:18.740,0,0,0,0,0,0,0,0,0,
10.67097, 18:26:18.756,0,0,0,0,0,0,0,0,0,
10.68769, 18:26:18.773,0,0,0,0,0,0,0,0,0,
10.70455, 18:26:18.790,0,0,0,0,0,0,0,0,0,
10.7218, 18:26:18.807,0,0,0,0,0,0,0,0,0,
10.73866, 18:26:18.824,0,0,0,0,0,0,0,0,0,
10.75646, 18:26:18.842,0,0,0,0,0,0,0,0,0,
10.77363, 18:26:18.859,0,0,0,0,0,0,0,0,0,
10.79029, 18:26:18.876,0,0,0,0,0,0,0,0,0,
10.80723, 18:26:18.893,0,0,0,0,0,0,0,0,0,
10.82391, 18:26:18.910,0,0,0,0,0,0,0,0,0,
10.84056, 18:26:18.926,0,0,0,0,0,0,0,0,0,
10.85776, 18:26:18.943,0,0,0,0,0,0,0,0,0,
10.87465, 18:26:18.960,0,0,0,0,0,0,0,0,0,
10.8916, 18:26:18.977,0,0,0,0,0,0,0,0,0,
10.90872, 18:26:18.994,0,0,0,0,0,0,0,0,0,
10.92539, 18:26:19.011,0,0,0,0,0,0,0,0,0,
10.9425, 18:26:19.028,0,0,0,0,0,0,0,0,0,
10.95933, 18:26:19.045,0,0,0,0,0,0,0,0,0,
10.976, 18:26:19.062,0,0,0,0,0,0,0,0,0,
10.99317, 18:26:19.079,0,0,0,0,0,0,0,0,0,
11.00996, 18:26:19.096,0,0,0,0,0,0,0,0,0,
11.02687, 18:26:19.112,0,0,0,0,0,0,0,0,0,
11.04381, 18:26:19.129,0,0,0,0,0,0,0,0,0,
11.06093, 18:26:19.147,0,0,0,0,0,0,0,0,0,
11.07759, 18:26:19.163,0,0,0,0,0,0,0,0,0,
11.09426, 18:26:19.180,0,0,0,0,0,0,0,0,0,
11.11117, 18:26:19.197,0,0,0,0,0,0,0,0,0,
11.12822, 18:26:19.214,0,0,0,0,0,0,0,0,0,
11.1454, 18:26:19.231,0,0,0,0,0,0,0,0,0,
11.16219, 18:26:19.248,0,0,0,0,0,0,0,0,0,
11.17974, 18:26:19.265,0,0,0,0,0,0,0,0,0,
11.19652, 18:26:19.282,0,0,0,0,0,0,0,0,0,
11.21322, 18:26:19.299,0,0,0,0,0,0,0,0,0,
11.22996, 18:26:19.316,0,0,0,0,0,0,0,0,0,
11.24683, 18:26:19.332,0,0,0,0,0,0,0,0,0,
11.26355, 18:26:19.349,0,0,0,0,0,0,0,0,0,
11.28064, 18:26:19.367,0,0,0,0,0,0,0,0,0,
11.29739, 18:26:19.383,0,0,0,0,0,0,0,0,0,
11.31418, 18:26:19.400,0,0,0,0,0,0,0,0,0,
11.3311, 18:26:19.417,0,0,0,0,0,0,0,0,0,
11.34811, 18:26:19.434,0,0,0,0,0,0,0,0,0,
11.36478, 18:26:19.450,0,0,0,0,0,0,0,0,0,
11.38194, 18:26:19.468,0,0,0,0,0,0,0,0,0,
11.40055, 18:26:19.486,0,0,0,0,0,0,0,0,0,
11.41731, 18:26:19.503,0,0,0,0,0,0,0,0,0,
11.43397, 18:26:19.520,0,0,0,0,0,0,0,0,0,
11.45082, 18:26:19.537,0,0,0,0,0,0,0,0,0,
11.46774, 18:26:19.554,0,0,0,0,0,0,0,0,0,
11.48494, 18:26:19.571,0,0,0,0,0,0,0,0,0,
11.50164, 18:26:19.588,0,0,0,0,0,0,0,0,0,
11.51834, 18:26:19.604,0,0,0,0,0,0,0,0,0,
11.53511, 18:26:19.621,0,0,0,0,0,0,0,0,0,
11.55216, 18:26:19.638,0,0,0,0,0,0,0,0,0,
11.56883, 18:26:19.655,0,0,0,0,0,0,0,0,0,
11.58556, 18:26:19.672,0,0,0,0,0,0,0,0,0,
11.60411, 18:26:19.690,0,0,0,0,0,0,0,0,0,
11.62129, 18:26:19.707,0,0,0,0,0,0,0,0,0,
11.6386, 18:26:19.724,0,0,0,0,0,0,0,0,0,
11.65553, 18:26:19.741,0,0,0,0,0,0,0,0,0,
11.67246, 18:26:19.758,0,0,0,0,0,0,0,0,0,
11.68912, 18:26:19.775,0,0,0,0,0,0,0,0,0,
11.70618, 18:26:19.792,0,0,0,0,0,0,0,0,0,
11.72297, 18:26:19.809,0,0,0,0,0,0,0,0,0,
11.74, 18:26:19.826,0,0,0,0,0,0,0,0,0,
11.75667, 18:26:19.842,0,0,0,0,0,0,0,0,0,
11.77391, 18:26:19.860,0,0,0,0,0,0,0,0,0,
11.79074, 18:26:19.877,0,0,0,0,0,0,0,0,0,
11.8083, 18:26:19.894,0,0,0,0,0,0,0,0,0,
11.82543, 18:26:19.911,0,0,0,0,0,0,0,0,0,
11.84413, 18:26:19.930,0,0,0,0,0,0,0,0,0,
11.86079, 18:26:19.946,0,0,0,0,0,0,0,0,0,
11.87803, 18:26:19.963,0,0,0,0,0,0,0,0,0,
11.89475, 18:26:19.980,0,0,0,0,0,0,0,0,0,
11.91176, 18:26:19.998,0,0,0,0,0,0,0,0,0,
11.92889, 18:26:20.015,0,0,0,0,0,0,0,0,0,
11.94564, 18:26:20.031,0,0,0,0,0,0,0,0,0,
11.96427, 18:26:20.050,0,0,0,0,0,0,0,0,0,
11.98118, 18:26:20.067,0,0,0,0,0,0,0,0,0,
11.99794, 18:26:20.083,0,0,0,0,0,0,0,0,0,
12.01488, 18:26:20.101,0,0,0,0,0,0,0,0,0,
12.03174, 18:26:20.117,0,0,0,0,0,0,0,0,0,
12.04891, 18:26:20.135,0,0,0,0,0,0,0,0,0,
12.06557, 18:26:20.151,0,0,0,0,0,0,0,0,0,
12.08224, 18:26:20.168,0,0,0,0,0,0,0,0,0,
12.09903, 18:26:20.184,0,0,0,0,0,0,0,0,0,
12.11571, 18:26:20.202,0,0,0,0,0,0,0,0,0,
12.13238, 18:26:20.218,0,0,0,0,0,0,0,0,0,
12.14917, 18:26:20.235,0,0,0,0,0,0,0,0,0,
12.16595, 18:26:20.252,0,0,0,0,0,0,0,0,0,
12.18285, 18:26:20.270,0,0,0,0,0,0,0,0,0,
12.19958, 18:26:20.285,0,0,0,0,0,0,0,0,0,
12.21665, 18:26:20.303,0,0,0,0,0,0,0,0,0,
12.23337, 18:26:20.319,0,0,0,0,0,0,0,0,0,
12.25004, 18:26:20.336,0,0,0,0,0,0,0,0,0,
12.26675, 18:26:20.352,0,0,0,0,0,0,0,0,0,
12.28342, 18:26:20.369,0,0,0,0,0,0,0,0,0,
12.30043, 18:26:20.386,0,0,0,0,0,0,0,0,0,
12.3171, 18:26:20.403,0,0,0,0,0,0,0,0,0,
12.33387, 18:26:20.420,0,0,0,0,0,0,0,0,0,
12.3507, 18:26:20.436,0,0,0,0,0,0,0,0,0,
12.36757, 18:26:20.453,0,0,0,0,0,0,0,0,0,
12.38449, 18:26:20.470,0,0,0,0,0,0,0,0,0,
12.40175, 18:26:20.487,0,0,0,0,0,0,0,0,0,
12.41847, 18:26:20.504,0,0,0,0,0,0,0,0,0,
12.43661, 18:26:20.522,0,0,0,0,0,0,0,0,0,
12.45332, 18:26:20.539,0,0,0,0,0,0,0,0,0,
12.47011, 18:26:20.556,0,0,0,0,0,0,0,0,0,
12.4868, 18:26:20.573,0,0,0,0,0,0,0,0,0,
12.50376, 18:26:20.589,0,0,0,0,0,0,0,0,0,
12.52049, 18:26:20.606,0,0,0,0,0,0,0,0,0,
12.53739, 18:26:20.623,0,0,0,0,0,0,0,0,0,
12.55404, 18:26:20.640,0,0,0,0,0,0,0,0,0,
12.57074, 18:26:20.656,0,0,0,0,0,0,0,0,0,
12.58741, 18:26:20.673,0,0,0,0,0,0,0,0,0,
12.60431, 18:26:20.690,0,0,0,0,0,0,0,0,0,
12.6211, 18:26:20.707,0,0,0,0,0,0,0,0,0,
12.63785, 18:26:20.723,0,0,0,0,0,0,0,0,0,
12.65462, 18:26:20.741,0,0,0,0,0,0,0,0,0,
12.67142, 18:26:20.757,0,0,0,0,0,0,0,0,0,
12.68846, 18:26:20.774,0,0,0,0,0,0,0,0,0,
12.70566, 18:26:20.791,0,0,0,0,0,0,0,0,0,
12.72248, 18:26:20.808,0,0,0,0,0,0,0,0,0,
12.73935, 18:26:20.825,0,0,0,0,0,0,0,0,0,
12.75643, 18:26:20.842,0,0,0,0,0,0,0,0,0,
12.77362, 18:26:20.859,0,0,0,0,0,0,0,0,0,
12.7904, 18:26:20.876,0,0,0,0,0,0,0,0,0,
12.80732, 18:26:20.893,0,0,0,0,0,0,0,0,0,
12.82401, 18:26:20.910,0,0,0,0,0,0,0,0,0,
12.84117, 18:26:20.927,0,0,0,0,0,0,0,0,0,
12.85843, 18:26:20.944,0,0,0,0,0,0,0,0,0,
12.87652, 18:26:20.962,0,0,0,0,0,0,0,0,0,
12.8932, 18:26:20.979,0,0,0,0,0,0,0,0,0,
12.90995, 18:26:20.996,0,0,0,0,0,0,0,0,0,
12.92662, 18:26:21.012,0,0,0,0,0,0,0,0,0,
12.94338, 18:26:21.029,0,0,0,0,0,0,0,0,0,
12.96048, 18:26:21.046,0,0,0,0,0,0,0,0,0,
12.97717, 18:26:21.063,0,0,0,0,0,0,0,0,0,
12.99393, 18:26:21.080,0,0,0,0,0,0,0,0,0,
13.0106, 18:26:21.097,0,0,0,0,0,0,0,0,0,
13.02752, 18:26:21.113,0,0,0,0,0,0,0,0,0,
13.0445, 18:26:21.130,0,0,0,0,0,0,0,0,0,
13.06117, 18:26:21.147,0,0,0,0,0,0,0,0,0,
13.07787, 18:26:21.163,0,0,0,0,0,0,0,0,0,
13.09468, 18:26:21.180,0,0,0,0,0,0,0,0,0,
13.11167, 18:26:21.197,0,0,0,0,0,0,0,0,0,
13.12834, 18:26:21.214,0,0,0,0,0,0,0,0,0,
13.14531, 18:26:21.231,0,0,0,0,0,0,0,0,0,
13.16208, 18:26:21.248,0,0,0,0,0,0,0,0,0,
13.17897, 18:26:21.265,0,0,0,0,0,0,0,0,0,
13.19658, 18:26:21.283,0,0,0,0,0,0,0,0,0,
13.21325, 18:26:21.299,0,0,0,0,0,0,0,0,0,
13.23, 18:26:21.316,0,0,0,0,0,0,0,0,0,
13.24667, 18:26:21.333,0,0,0,0,0,0,0,0,0,
13.26347, 18:26:21.349,0,0,0,0,0,0,0,0,0,
13.28055, 18:26:21.366,0,0,0,0,0,0,0,0,0,
13.29722, 18:26:21.383,0,0,0,0,0,0,0,0,0,
13.31404, 18:26:21.400,0,0,0,0,0,0,0,0,0,
13.33092, 18:26:21.417,0,0,0,0,0,0,0,0,0,
13.3476, 18:26:21.434,0,0,0,0,0,0,0,0,0,
13.36427, 18:26:21.451,0,0,0,0,0,0,0,0,0,
13.38096, 18:26:21.467,0,0,0,0,0,0,0,0,0,
13.39765, 18:26:21.483,0,0,0,0,0,0,0,0,0,
13.41452, 18:26:21.501,0,0,0,0,0,0,0,0,0,
13.4315, 18:26:21.518,0,0,0,0,0,0,0,0,0,
13.44839, 18:26:21.534,0,0,0,0,0,0,0,0,0,
13.46506, 18:26:21.551,0,0,0,0,0,0,0,0,0,
13.48175, 18:26:21.568,0,0,0,0,0,0,0,0,0,
13.50026, 18:26:21.586,0,0,0,0,0,0,0,0,0,
13.51727, 18:26:21.603,0,0,0,0,0,0,0,0,0,
13.53394, 18:26:21.620,0,0,0,0,0,0,0,0,0,
13.5506, 18:26:21.637,0,0,0,0,0,0,0,0,0,
13.56834, 18:26:21.654,0,0,0,0,0,0,0,0,0,
13.58501, 18:26:21.671,0,0,0,0,0,0,0,0,0,
13.60174, 18:26:21.688,0,0,0,0,0,0,0,0,0,
13.61842, 18:26:21.704,0,0,0,0,0,0,0,0,0,
13.63509, 18:26:21.721,0,0,0,0,0,0,0,0,0,
13.65176, 18:26:21.738,0,0,0,0,0,0,0,0,0,
13.66869, 18:26:21.755,0,0,0,0,0,0,0,0,0,
13.68536, 18:26:21.771,0,0,0,0,0,0,0,0,0,
13.70205, 18:26:21.788,0,0,0,0,0,0,0,0,0,
13.71877, 18:26:21.809,0,0,0,0,0,0,0,0,0,
13.73613, 18:26:21.822,0,0,0,0,0,0,0,0,0,
13.7528, 18:26:21.839,0,0,0,0,0,0,0,0,0,
13.7695, 18:26:21.855,0,0,0,0,0,0,0,0,0,
13.78633, 18:26:21.873,0,0,0,0,0,0,0,0,0,
13.80322, 18:26:21.889,0,0,0,0,0,0,0,0,0,
13.81989, 18:26:21.905,0,0,0,0,0,0,0,0,0,
13.83692, 18:26:21.923,0,0,0,0,0,0,0,0,0,
13.85358, 18:26:21.940,0,0,0,0,0,0,0,0,0,
13.87043, 18:26:21.956,0,0,0,0,0,0,0,0,0,
13.8871, 18:26:21.973,0,0,0,0,0,0,0,0,0,
13.90378, 18:26:21.990,0,0,0,0,0,0,0,0,0,
13.92044, 18:26:22.006,0,0,0,0,0,0,0,0,0,
13.93713, 18:26:22.023,0,0,0,0,0,0,0,0,0,
13.95392, 18:26:22.040,0,0,0,0,0,0,0,0,0,
13.97058, 18:26:22.056,0,0,0,0,0,0,0,0,0,
13.98729, 18:26:22.073,0,0,0,0,0,0,0,0,0,
14.00424, 18:26:22.090,0,0,0,0,0,0,0,0,0,
14.02096, 18:26:22.107,0,0,0,0,0,0,0,0,0,
14.03762, 18:26:22.123,0,0,0,0,0,0,0,0,0,
14.05433, 18:26:22.140,0,0,0,0,0,0,0,0,0,
14.07123, 18:26:22.157,0,0,0,0,0,0,0,0,0,
14.08842, 18:26:22.174,0,0,0,0,0,0,0,0,0,
14.10565, 18:26:22.191,0,0,0,0,0,0,0,0,0,
14.12249, 18:26:22.208,0,0,0,0,0,0,0,0,0,
14.13942, 18:26:22.225,0,0,0,0,0,0,0,0,0,
14.15642, 18:26:22.242,0,0,0,0,0,0,0,0,0,
14.17315, 18:26:22.259,0,0,0,0,0,0,0,0,0,
14.1899, 18:26:22.276,0,0,0,0,0,0,0,0,0,
14.20657, 18:26:22.292,0,0,0,0,0,0,0,0,0,
14.22835, 18:26:22.314,0,0,0,0,0,0,0,0,0,
14.2482, 18:26:22.334,0,0,0,0,0,0,0,0,0,
14.26487, 18:26:22.351,0,0,0,0,0,0,0,0,0,
14.28436, 18:26:22.370,0,0,0,0,0,0,0,0,0,
14.30107, 18:26:22.387,0,0,0,0,0,0,0,0,0,
14.32078, 18:26:22.407,0,0,0,0,0,0,0,0,0,
14.33751, 18:26:22.423,0,0,0,0,0,0,0,0,0,
14.35431, 18:26:22.440,0,0,0,0,0,0,0,0,0,
14.37111, 18:26:22.457,0,0,0,0,0,0,0,0,0,
14.38778, 18:26:22.473,0,0,0,0,0,0,0,0,0,
14.40445, 18:26:22.490,0,0,0,0,0,0,0,0,0,
14.42159, 18:26:22.507,0,0,0,0,0,0,0,0,0,
14.43841, 18:26:22.524,0,0,0,0,0,0,0,0,0,
14.45507, 18:26:22.541,0,0,0,0,0,0,0,0,0,
14.47243, 18:26:22.558,0,0,0,0,0,0,0,0,0,
14.4891, 18:26:22.575,0,0,0,0,0,0,0,0,0,
14.51204, 18:26:22.598,0,0,0,0,0,0,0,0,0,
14.52871, 18:26:22.614,0,0,0,0,0,0,0,0,0,
14.54807, 18:26:22.634,0,0,0,0,0,0,0,0,0,
14.56491, 18:26:22.651,0,0,0,0,0,0,0,0,0,
14.58167, 18:26:22.668,0,0,0,0,0,0,0,0,0,
14.59851, 18:26:22.684,0,0,0,0,0,0,0,0,0,
14.61518, 18:26:22.701,0,0,0,0,0,0,0,0,0,
14.63189, 18:26:22.718,0,0,0,0,0,0,0,0,0,
14.6487, 18:26:22.734,0,0,0,0,0,0,0,0,0,
14.66543, 18:26:22.751,0,0,0,0,0,0,0,0,0,
14.68221, 18:26:22.769,0,0,0,0,0,0,0,0,0,
14.69894, 18:26:22.784,0,0,0,0,0,0,0,0,0,
14.71569, 18:26:22.802,0,0,0,0,0,0,0,0,0,
14.73669, 18:26:22.822,0,0,0,0,0,0,0,0,0,
14.75397, 18:26:22.840,0,0,0,0,0,0,0,0,0,
14.77084, 18:26:22.857,0,0,0,0,0,0,0,0,0,
14.78845, 18:26:22.874,0,0,0,0,0,0,0,0,0,
14.80832, 18:26:22.894,0,0,0,0,0,0,0,0,0,
14.82824, 18:26:22.914,0,0,0,0,0,0,0,0,0,
14.85601, 18:26:22.942,0,0,0,0,0,0,0,0,0,
14.87267, 18:26:22.958,0,0,0,0,0,0,0,0,0,
14.8899, 18:26:22.976,0,0,0,0,0,0,0,0,0,
14.90674, 18:26:22.992,0,0,0,0,0,0,0,0,0,
14.92377, 18:26:23.010,0,0,0,0,0,0,0,0,0,
14.94048, 18:26:23.026,0,0,0,0,0,0,0,0,0,
14.95723, 18:26:23.043,0,0,0,0,0,0,0,0,0,
14.97412, 18:26:23.060,0,0,0,0,0,0,0,0,0,
14.99108, 18:26:23.077,0,0,0,0,0,0,0,0,0,
15.00798, 18:26:23.094,0,0,0,0,0,0,0,0,0,
15.02519, 18:26:23.111,0,0,0,0,0,0,0,0,0,
15.04186, 18:26:23.128,0,0,0,0,0,0,0,0,0,
15.05852, 18:26:23.144,0,0,0,0,0,0,0,0,0,
15.07547, 18:26:23.161,0,0,0,0,0,0,0,0,0,
15.09278, 18:26:23.179,0,0,0,0,0,0,0,0,0,
15.1095, 18:26:23.195,0,0,0,0,0,0,0,0,0,
15.12631, 18:26:23.212,0,0,0,0,0,0,0,0,0,
15.14512, 18:26:23.231,0,0,0,0,0,0,0,0,0,
15.16179, 18:26:23.248,0,0,0,0,0,0,0,0,0,
15.18443, 18:26:23.270,0,0,0,0,0,0,0,0,0,
15.20111, 18:26:23.287,0,0,0,0,0,0,0,0,0,
15.22022, 18:26:23.306,0,0,0,0,0,0,0,0,0,
15.24022, 18:26:23.326,0,0,0,0,0,0,0,0,0,
15.25689, 18:26:23.342,0,0,0,0,0,0,0,0,0,
15.27359, 18:26:23.359,0,0,0,0,0,0,0,0,0,
15.29037, 18:26:23.376,0,0,0,0,0,0,0,0,0,
15.30725, 18:26:23.394,0,0,0,0,0,0,0,0,0,
15.32458, 18:26:23.410,0,0,0,0,0,0,0,0,0,
15.34131, 18:26:23.427,0,0,0,0,0,0,0,0,0,
15.35808, 18:26:23.443,0,0,0,0,0,0,0,0,0,
15.37496, 18:26:23.461,0,0,0,0,0,0,0,0,0,
15.39163, 18:26:23.478,0,0,0,0,0,0,0,0,0,
15.40875, 18:26:23.495,0,0,0,0,0,0,0,0,0,
15.42543, 18:26:23.511,0,0,0,0,0,0,0,0,0,
15.44403, 18:26:23.530,0,0,0,0,0,0,0,0,0,
15.46069, 18:26:23.547,0,0,0,0,0,0,0,0,0,
15.47736, 18:26:23.563,0,0,0,0,0,0,0,0,0,
15.49594, 18:26:23.582,0,0,0,0,0,0,0,0,0,
15.51261, 18:26:23.598,0,0,0,0,0,0,0,0,0,
15.5293, 18:26:23.615,0,0,0,0,0,0,0,0,0,
15.5568, 18:26:23.643,0,0,0,0,0,0,0,0,0,
15.57353, 18:26:23.659,0,0,0,0,0,0,0,0,0,
15.59028, 18:26:23.676,0,0,0,0,0,0,0,0,0,
15.60696, 18:26:23.693,0,0,0,0,0,0,0,0,0,
15.62638, 18:26:23.753,0,0,0,0,0,0,0,0,0,
15.73678, 18:26:23.823,0,0,0,0,0,0,0,0,0,
15.76455, 18:26:23.851,0,0,0,0,0,0,0,0,0,
15.78129, 18:26:23.867,0,0,0,0,0,0,0,0,0,
15.79795, 18:26:23.883,0,0,0,0,0,0,0,0,0,
15.81489, 18:26:23.901,0,0,0,0,0,0,0,0,0,
15.83156, 18:26:23.917,0,0,0,0,0,0,0,0,0,
15.84828, 18:26:23.935,0,0,0,0,0,0,0,0,0,
15.86495, 18:26:23.951,0,0,0,0,0,0,0,0,0,
15.88161, 18:26:23.968,0,0,0,0,0,0,0,0,0,
15.89842, 18:26:23.984,0,0,0,0,0,0,0,0,0,
15.91509, 18:26:24.001,0,0,0,0,0,0,0,0,0,
15.93207, 18:26:24.019,0,0,0,0,0,0,0,0,0,
15.94874, 18:26:24.035,0,0,0,0,0,0,0,0,0,
15.96802, 18:26:24.054,0,0,0,0,0,0,0,0,0,
15.98498, 18:26:24.071,0,0,0,0,0,0,0,0,0,
16.00165, 18:26:24.088,0,0,0,0,0,0,0,0,0,
16.01847, 18:26:24.104,0,0,0,0,0,0,0,0,0,
16.03651, 18:26:24.122,0,0,0,0,0,0,0,0,0,
16.06088, 18:26:24.148,0,0,0,0,0,0,0,0,0,
16.08043, 18:26:24.166,0,0,0,0,0,0,0,0,0,
16.10021, 18:26:24.186,0,0,0,0,0,0,0,0,0,
16.12041, 18:26:24.206,0,0,0,0,0,0,0,0,0,
16.13713, 18:26:24.223,0,0,0,0,0,0,0,0,0,
16.15648, 18:26:24.242,0,0,0,0,0,0,0,0,0,
16.17675, 18:26:24.263,0,0,0,0,0,0,0,0,0,
16.20058, 18:26:24.287,0,0,0,0,0,0,0,0,0,
16.21725, 18:26:24.303,0,0,0,0,0,0,0,0,0,
16.23818, 18:26:24.324,0,0,0,0,0,0,0,0,0,
16.25643, 18:26:24.342,0,0,0,0,0,0,0,0,0,
16.27314, 18:26:24.359,0,0,0,0,0,0,0,0,0,
16.28983, 18:26:24.376,0,0,0,0,0,0,0,0,0,
16.31243, 18:26:24.399,0,0,0,0,0,0,0,0,0,
16.33206, 18:26:24.418,0,0,0,0,0,0,0,0,0,
16.34884, 18:26:24.435,0,0,0,0,0,0,0,0,0,
16.36557, 18:26:24.452,0,0,0,0,0,0,0,0,0,
16.38491, 18:26:24.471,0,0,0,0,0,0,0,0,0,
16.4016, 18:26:24.488,0,0,0,0,0,0,0,0,0,
16.42056, 18:26:24.507,0,0,0,0,0,0,0,0,0,
16.44018, 18:26:24.526,0,0,0,0,0,0,0,0,0,
16.45685, 18:26:24.543,0,0,0,0,0,0,0,0,0,
16.4736, 18:26:24.559,0,0,0,0,0,0,0,0,0,
16.49031, 18:26:24.576,0,0,0,0,0,0,0,0,0,
16.50726, 18:26:24.593,0,0,0,0,0,0,0,0,0,
16.52423, 18:26:24.610,0,0,0,0,0,0,0,0,0,
16.5409, 18:26:24.627,0,0,0,0,0,0,0,0,0,
16.55761, 18:26:24.643,0,0,0,0,0,0,0,0,0,
16.57443, 18:26:24.661,0,0,0,0,0,0,0,0,0,
16.59238, 18:26:24.678,0,0,0,0,0,0,0,0,0,
16.60906, 18:26:24.695,0,0,0,0,0,0,0,0,0,
16.62575, 18:26:24.712,0,0,0,0,0,0,0,0,0,
16.64242, 18:26:24.728,0,0,0,0,0,0,0,0,0,
16.65915, 18:26:24.745,0,0,0,0,0,0,0,0,0,
16.67615, 18:26:24.762,0,0,0,0,0,0,0,0,0,
16.69281, 18:26:24.779,0,0,0,0,0,0,0,0,0,
16.70948, 18:26:24.796,0,0,0,0,0,0,0,0,0,
16.72629, 18:26:24.812,0,0,0,0,0,0,0,0,0,
16.74298, 18:26:24.830,0,0,0,0,0,0,0,0,0,
16.76618, 18:26:24.852,0,0,0,0,0,0,0,0,0,
16.78297, 18:26:24.869,0,0,0,0,0,0,0,0,0,
16.80418, 18:26:24.890,0,0,0,0,0,0,0,0,0,
16.82118, 18:26:24.907,0,0,0,0,0,0,0,0,0,
16.83798, 18:26:24.923,0,0,0,0,0,0,0,0,0,
16.855, 18:26:24.941,0,0,0,0,0,0,0,0,0,
Elapsed_Time, System_Time, Euler_Roll, Euler_Pitch, Euler_Yaw, Gyro_Roll, Gyro_Pitch, Gyro_Yaw, Accel_x, Accel_y, Accel_z
0.02, 18:26:51.938,0,0,0,0,0,0,0,0,0,
0.04, 18:26:52.067,0,0,0,0,0,0,0,0,0,
0.3733333, 18:26:52.888,0,0,0,0,0,0,0,0,0,
0.4331459, 18:26:52.940,0,0,0,0,0,0,0,0,0,
0.469422, 18:26:52.976,0,0,0,0,0,0,0,0,0,
0.486217, 18:26:52.993,0,0,0,0,0,0,0,0,0,
0.5052868, 18:26:53.012,0,0,0,0,0,0,0,0,0,
0.5293338, 18:26:53.036,0,0,0,0,0,0,0,0,0,
0.5490631, 18:26:53.056,0,0,0,0,0,0,0,0,0,
0.5657299, 18:26:53.072,0,0,0,0,0,0,0,0,0,
0.585847, 18:26:53.092,0,0,0,0,0,0,0,0,0,
0.6049221, 18:26:53.111,0,0,0,0,0,0,0,0,0,
0.6216368, 18:26:53.128,0,0,0,0,0,0,0,0,0,
0.6414112, 18:26:53.148,0,0,0,0,0,0,0,0,0,
0.6613401, 18:26:53.168,0,0,0,0,0,0,0,0,0,
0.680906, 18:26:53.187,0,0,0,0,0,0,0,0,0,
0.7084425, 18:26:53.214,0,0,0,0,0,0,0,0,0,
0.7290899, 18:26:53.235,0,0,0,0,0,0,0,0,0,
0.7457567, 18:26:53.252,0,0,0,0,0,0,0,0,0,
0.7654816, 18:26:53.272,0,0,0,0,0,0,0,0,0,
0.7821486, 18:26:53.288,0,0,0,0,0,0,0,0,0,
0.8010647, 18:26:53.308,0,0,0,0,0,0,0,0,0,
0.821319, 18:26:53.328,0,0,0,0,0,0,0,0,0,
0.8409494, 18:26:53.347,0,0,0,0,0,0,0,0,0,
0.8613846, 18:26:53.368,0,0,0,0,0,0,0,0,0,
0.8780513, 18:26:53.384,0,0,0,0,0,0,0,0,0,
0.8972524, 18:26:53.404,0,0,0,0,0,0,0,0,0,
0.913949, 18:26:53.421,0,0,0,0,0,0,0,0,0,
0.93777, 18:26:53.444,0,0,0,0,0,0,0,0,0,
0.9576159, 18:26:53.464,0,0,0,0,0,0,0,0,0,
0.9784219, 18:26:53.485,0,0,0,0,0,0,0,0,0,
0.9990394, 18:26:53.505,0,0,0,0,0,0,0,0,0,
1.01706, 18:26:53.523,0,0,0,0,0,0,0,0,0,
1.03729, 18:26:53.544,0,0,0,0,0,0,0,0,0,
1.053958, 18:26:53.560,0,0,0,0,0,0,0,0,0,
1.071502, 18:26:53.578,0,0,0,0,0,0,0,0,0,
1.089543, 18:26:53.596,0,0,0,0,0,0,0,0,0,
1.10621, 18:26:53.612,0,0,0,0,0,0,0,0,0,
1.125154, 18:26:53.631,0,0,0,0,0,0,0,0,0,
1.145077, 18:26:53.651,0,0,0,0,0,0,0,0,0,
1.161805, 18:26:53.668,0,0,0,0,0,0,0,0,0,
1.178473, 18:26:53.685,0,0,0,0,0,0,0,0,0,
1.197281, 18:26:53.704,0,0,0,0,0,0,0,0,0,
1.217127, 18:26:53.723,0,0,0,0,0,0,0,0,0,
1.233793, 18:26:53.740,0,0,0,0,0,0,0,0,0,
1.253876, 18:26:53.761,0,0,0,0,0,0,0,0,0,
1.2729, 18:26:53.779,0,0,0,0,0,0,0,0,0,
1.293707, 18:26:53.800,0,0,0,0,0,0,0,0,0,
1.310374, 18:26:53.817,0,0,0,0,0,0,0,0,0,
1.329116, 18:26:53.848,0,0,0,0,0,0,0,0,0,
1.454087, 18:26:53.970,0,0,0,0,0,0,0,0,0,
1.481267, 18:26:53.988,0,0,0,0,0,0,0,0,0,
1.502131, 18:26:54.009,0,0,0,0,0,0,0,0,0,
1.521691, 18:26:54.028,0,0,0,0,0,0,0,0,0,
1.541578, 18:26:54.048,0,0,0,0,0,0,0,0,0,
1.566453, 18:26:54.073,0,0,0,0,0,0,0,0,0,
1.585063, 18:26:54.091,0,0,0,0,0,0,0,0,0,
1.60173, 18:26:54.108,0,0,0,0,0,0,0,0,0,
1.618422, 18:26:54.124,0,0,0,0,0,0,0,0,0,
1.635236, 18:26:54.142,0,0,0,0,0,0,0,0,0,
1.653278, 18:26:54.160,0,0,0,0,0,0,0,0,0,
1.673321, 18:26:54.185,0,0,0,0,0,0,0,0,0,
1.69745, 18:26:54.204,0,0,0,0,0,0,0,0,0,
1.714183, 18:26:54.221,0,0,0,0,0,0,0,0,0,
1.733295, 18:26:54.239,0,0,0,0,0,0,0,0,0,
1.749964, 18:26:54.257,0,0,0,0,0,0,0,0,0,
1.769791, 18:26:54.276,0,0,0,0,0,0,0,0,0,
1.78654, 18:26:54.293,0,0,0,0,0,0,0,0,0,
1.806335, 18:26:54.313,0,0,0,0,0,0,0,0,0,
1.824987, 18:26:54.331,0,0,0,0,0,0,0,0,0,
1.841653, 18:26:54.348,0,0,0,0,0,0,0,0,0,
1.860951, 18:26:54.367,0,0,0,0,0,0,0,0,0,
1.877953, 18:26:54.384,0,0,0,0,0,0,0,0,0,
1.897563, 18:26:54.404,0,0,0,0,0,0,0,0,0,
1.914325, 18:26:54.421,0,0,0,0,0,0,0,0,0,
1.934064, 18:26:54.440,0,0,0,0,0,0,0,0,0,
1.953039, 18:26:54.459,0,0,0,0,0,0,0,0,0,
1.973311, 18:26:54.479,0,0,0,0,0,0,0,0,0,
1.989978, 18:26:54.497,0,0,0,0,0,0,0,0,0,
2.009189, 18:26:54.516,0,0,0,0,0,0,0,0,0,
2.029628, 18:26:54.536,0,0,0,0,0,0,0,0,0,
2.048922, 18:26:54.555,0,0,0,0,0,0,0,0,0,
2.065589, 18:26:54.572,0,0,0,0,0,0,0,0,0,
2.082348, 18:26:54.589,0,0,0,0,0,0,0,0,0,
2.101954, 18:26:54.608,0,0,0,0,0,0,0,0,0,
2.121767, 18:26:54.628,0,0,0,0,0,0,0,0,0,
2.138529, 18:26:54.644,0,0,0,0,0,0,0,0,0,
2.157465, 18:26:54.664,0,0,0,0,0,0,0,0,0,
2.176854, 18:26:54.683,0,0,0,0,0,0,0,0,0,
2.193521, 18:26:54.700,0,0,0,0,0,0,0,0,0,
2.213543, 18:26:54.720,0,0,0,0,0,0,0,0,0,
2.233313, 18:26:54.740,0,0,0,0,0,0,0,0,0,
2.249986, 18:26:54.756,0,0,0,0,0,0,0,0,0,
2.266654, 18:26:54.773,0,0,0,0,0,0,0,0,0,
2.293896, 18:26:54.801,0,0,0,0,0,0,0,0,0,
2.313167, 18:26:54.820,0,0,0,0,0,0,0,0,0,
2.333433, 18:26:54.840,0,0,0,0,0,0,0,0,0,
2.350101, 18:26:54.857,0,0,0,0,0,0,0,0,0,
2.366767, 18:26:54.873,0,0,0,0,0,0,0,0,0,
2.389226, 18:26:54.895,0,0,0,0,0,0,0,0,0,
2.405911, 18:26:54.912,0,0,0,0,0,0,0,0,0,
2.426455, 18:26:54.932,0,0,0,0,0,0,0,0,0,
2.449885, 18:26:54.956,0,0,0,0,0,0,0,0,0,
2.478488, 18:26:54.985,0,0,0,0,0,0,0,0,0,
2.497543, 18:26:55.004,0,0,0,0,0,0,0,0,0,
2.51421, 18:26:55.021,0,0,0,0,0,0,0,0,0,
2.531006, 18:26:55.037,0,0,0,0,0,0,0,0,0,
2.549669, 18:26:55.056,0,0,0,0,0,0,0,0,0,
2.569264, 18:26:55.075,0,0,0,0,0,0,0,0,0,
2.590318, 18:26:55.097,0,0,0,0,0,0,0,0,0,
2.609539, 18:26:55.115,0,0,0,0,0,0,0,0,0,
2.626206, 18:26:55.132,0,0,0,0,0,0,0,0,0,
2.645547, 18:26:55.152,0,0,0,0,0,0,0,0,0,
2.662282, 18:26:55.168,0,0,0,0,0,0,0,0,0,
2.678999, 18:26:55.185,0,0,0,0,0,0,0,0,0,
2.695906, 18:26:55.202,0,0,0,0,0,0,0,0,0,
2.713766, 18:26:55.220,0,0,0,0,0,0,0,0,0,
2.733618, 18:26:55.240,0,0,0,0,0,0,0,0,0,
2.750285, 18:26:55.256,0,0,0,0,0,0,0,0,0,
2.767033, 18:26:55.273,0,0,0,0,0,0,0,0,0,
2.785704, 18:26:55.292,0,0,0,0,0,0,0,0,0,
2.804984, 18:26:55.311,0,0,0,0,0,0,0,0,0,
2.821652, 18:26:55.328,0,0,0,0,0,0,0,0,0,
2.838382, 18:26:55.344,0,0,0,0,0,0,0,0,0,
2.85505, 18:26:55.361,0,0,0,0,0,0,0,0,0,
2.87343, 18:26:55.379,0,0,0,0,0,0,0,0,0,
2.893649, 18:26:55.400,0,0,0,0,0,0,0,0,0,
2.910328, 18:26:55.416,0,0,0,0,0,0,0,0,0,
2.929538, 18:26:55.435,0,0,0,0,0,0,0,0,0,
2.946206, 18:26:55.453,0,0,0,0,0,0,0,0,0,
2.962872, 18:26:55.470,0,0,0,0,0,0,0,0,0,
2.981409, 18:26:55.487,0,0,0,0,0,0,0,0,0,
3.007517, 18:26:55.514,0,0,0,0,0,0,0,0,0,
3.038654, 18:26:55.545,0,0,0,0,0,0,0,0,0,
3.057491, 18:26:55.563,0,0,0,0,0,0,0,0,0,
3.074264, 18:26:55.580,0,0,0,0,0,0,0,0,0,
3.097409, 18:26:55.603,0,0,0,0,0,0,0,0,0,
3.121684, 18:26:55.629,0,0,0,0,0,0,0,0,0,
3.141574, 18:26:55.648,0,0,0,0,0,0,0,0,0,
3.158286, 18:26:55.664,0,0,0,0,0,0,0,0,0,
3.178027, 18:26:55.684,0,0,0,0,0,0,0,0,0,
3.19475, 18:26:55.701,0,0,0,0,0,0,0,0,0,
3.211592, 18:26:55.718,0,0,0,0,0,0,0,0,0,
3.233917, 18:26:55.740,0,0,0,0,0,0,0,0,0,
3.25065, 18:26:55.757,0,0,0,0,0,0,0,0,0,
3.269623, 18:26:55.776,0,0,0,0,0,0,0,0,0,
3.28629, 18:26:55.793,0,0,0,0,0,0,0,0,0,
3.309569, 18:26:55.815,0,0,0,0,0,0,0,0,0,
3.326284, 18:26:55.832,0,0,0,0,0,0,0,0,0,
3.343066, 18:26:55.849,0,0,0,0,0,0,0,0,0,
3.361525, 18:26:55.868,0,0,0,0,0,0,0,0,0,
3.378193, 18:26:55.884,0,0,0,0,0,0,0,0,0,
3.402004, 18:26:55.909,0,0,0,0,0,0,0,0,0,
3.418741, 18:26:55.924,0,0,0,0,0,0,0,0,0,
3.441428, 18:26:55.948,0,0,0,0,0,0,0,0,0,
3.458095, 18:26:55.964,0,0,0,0,0,0,0,0,0,
3.474903, 18:26:55.981,0,0,0,0,0,0,0,0,0,
3.493697, 18:26:56.000,0,0,0,0,0,0,0,0,0,
3.510479, 18:26:56.017,0,0,0,0,0,0,0,0,0,
3.529563, 18:26:56.036,0,0,0,0,0,0,0,0,0,
3.546311, 18:26:56.053,0,0,0,0,0,0,0,0,0,
3.562977, 18:26:56.070,0,0,0,0,0,0,0,0,0,
3.582037, 18:26:56.088,0,0,0,0,0,0,0,0,0,
3.598703, 18:26:56.104,0,0,0,0,0,0,0,0,0,
3.61537, 18:26:56.122,0,0,0,0,0,0,0,0,0,
3.633365, 18:26:56.139,0,0,0,0,0,0,0,0,0,
3.657639, 18:26:56.164,0,0,0,0,0,0,0,0,0,
3.677661, 18:26:56.184,0,0,0,0,0,0,0,0,0,
3.694329, 18:26:56.201,0,0,0,0,0,0,0,0,0,
3.711072, 18:26:56.217,0,0,0,0,0,0,0,0,0,
3.729739, 18:26:56.236,0,0,0,0,0,0,0,0,0,
3.746406, 18:26:56.253,0,0,0,0,0,0,0,0,0,
3.763191, 18:26:56.271,0,0,0,0,0,0,0,0,0,
3.78216, 18:26:56.289,0,0,0,0,0,0,0,0,0,
3.798875, 18:26:56.304,0,0,0,0,0,0,0,0,0,
3.815607, 18:26:56.322,0,0,0,0,0,0,0,0,0,
3.833405, 18:26:56.340,0,0,0,0,0,0,0,0,0,
3.850072, 18:26:56.356,0,0,0,0,0,0,0,0,0,
3.869357, 18:26:56.375,0,0,0,0,0,0,0,0,0,
3.886024, 18:26:56.393,0,0,0,0,0,0,0,0,0,
3.905559, 18:26:56.411,0,0,0,0,0,0,0,0,0,
3.922248, 18:26:56.429,0,0,0,0,0,0,0,0,0,
3.939024, 18:26:56.444,0,0,0,0,0,0,0,0,0,
3.95756, 18:26:56.464,0,0,0,0,0,0,0,0,0,
3.974293, 18:26:56.480,0,0,0,0,0,0,0,0,0,
3.991027, 18:26:56.497,0,0,0,0,0,0,0,0,0,
4.008999, 18:26:56.515,0,0,0,0,0,0,0,0,0,
4.025679, 18:26:56.533,0,0,0,0,0,0,0,0,0,
4.046874, 18:26:56.553,0,0,0,0,0,0,0,0,0,
4.065934, 18:26:56.572,0,0,0,0,0,0,0,0,0,
4.086283, 18:26:56.593,0,0,0,0,0,0,0,0,0,
4.103044, 18:26:56.609,0,0,0,0,0,0,0,0,0,
4.121643, 18:26:56.628,0,0,0,0,0,0,0,0,0,
4.138349, 18:26:56.644,0,0,0,0,0,0,0,0,0,
4.15773, 18:26:56.664,0,0,0,0,0,0,0,0,0,
4.177911, 18:26:56.684,0,0,0,0,0,0,0,0,0,
4.194643, 18:26:56.701,0,0,0,0,0,0,0,0,0,
4.214414, 18:26:56.721,0,0,0,0,0,0,0,0,0,
4.233113, 18:26:56.739,0,0,0,0,0,0,0,0,0,
4.249779, 18:26:56.756,0,0,0,0,0,0,0,0,0,
4.266466, 18:26:56.772,0,0,0,0,0,0,0,0,0,
4.283178, 18:26:56.790,0,0,0,0,0,0,0,0,0,
4.305511, 18:26:56.811,0,0,0,0,0,0,0,0,0,
4.322211, 18:26:56.829,0,0,0,0,0,0,0,0,0,
4.341696, 18:26:56.848,0,0,0,0,0,0,0,0,0,
4.358362, 18:26:56.864,0,0,0,0,0,0,0,0,0,
4.375101, 18:26:56.881,0,0,0,0,0,0,0,0,0,
4.393397, 18:26:56.899,0,0,0,0,0,0,0,0,0,
4.410083, 18:26:56.916,0,0,0,0,0,0,0,0,0,
4.429501, 18:26:56.936,0,0,0,0,0,0,0,0,0,
4.446168, 18:26:56.953,0,0,0,0,0,0,0,0,0,
4.466109, 18:26:56.972,0,0,0,0,0,0,0,0,0,
4.482879, 18:26:56.989,0,0,0,0,0,0,0,0,0,
4.501655, 18:26:57.008,0,0,0,0,0,0,0,0,0,
4.525927, 18:26:57.032,0,0,0,0,0,0,0,0,0,
4.542682, 18:26:57.049,0,0,0,0,0,0,0,0,0,
4.56168, 18:26:57.067,0,0,0,0,0,0,0,0,0,
4.578347, 18:26:57.084,0,0,0,0,0,0,0,0,0,
4.597486, 18:26:57.104,0,0,0,0,0,0,0,0,0,
4.614153, 18:26:57.120,0,0,0,0,0,0,0,0,0,
4.633883, 18:26:57.140,0,0,0,0,0,0,0,0,0,
4.650613, 18:26:57.157,0,0,0,0,0,0,0,0,0,
4.669527, 18:26:57.175,0,0,0,0,0,0,0,0,0,
4.686251, 18:26:57.192,0,0,0,0,0,0,0,0,0,
4.702977, 18:26:57.209,0,0,0,0,0,0,0,0,0,
4.719812, 18:26:57.225,0,0,0,0,0,0,0,0,0,
4.741624, 18:26:57.248,0,0,0,0,0,0,0,0,0,
4.761953, 18:26:57.269,0,0,0,0,0,0,0,0,0,
4.781201, 18:26:57.287,0,0,0,0,0,0,0,0,0,
4.808233, 18:26:57.314,0,0,0,0,0,0,0,0,0,
4.835197, 18:26:57.341,0,0,0,0,0,0,0,0,0,
4.866422, 18:26:57.373,0,0,0,0,0,0,0,0,0,
4.887492, 18:26:57.394,0,0,0,0,0,0,0,0,0,
4.910199, 18:26:57.416,0,0,0,0,0,0,0,0,0,
4.929366, 18:26:57.436,0,0,0,0,0,0,0,0,0,
4.957733, 18:26:57.464,0,0,0,0,0,0,0,0,0,
4.974446, 18:26:57.481,0,0,0,0,0,0,0,0,0,
4.993803, 18:26:57.500,0,0,0,0,0,0,0,0,0,
5.01047, 18:26:57.517,0,0,0,0,0,0,0,0,0,
5.029896, 18:26:57.536,0,0,0,0,0,0,0,0,0,
5.050297, 18:26:57.557,0,0,0,0,0,0,0,0,0,
5.069462, 18:26:57.576,0,0,0,0,0,0,0,0,0,
5.09058, 18:26:57.597,0,0,0,0,0,0,0,0,0,
5.109282, 18:26:57.616,0,0,0,0,0,0,0,0,0,
5.141487, 18:26:57.649,0,0,0,0,0,0,0,0,0,
5.173639, 18:26:57.680,0,0,0,0,0,0,0,0,0,
5.198327, 18:26:57.706,0,0,0,0,0,0,0,0,0,
5.218261, 18:26:57.725,0,0,0,0,0,0,0,0,0,
5.253647, 18:26:57.760,0,0,0,0,0,0,0,0,0,
5.277471, 18:26:57.784,0,0,0,0,0,0,0,0,0,
5.301591, 18:26:57.808,0,0,0,0,0,0,0,0,0,
5.328838, 18:26:57.836,0,0,0,0,0,0,0,0,0,
5.354175, 18:26:57.861,0,0,0,0,0,0,0,0,0,
5.377818, 18:26:57.884,0,0,0,0,0,0,0,0,0,
5.397431, 18:26:57.904,0,0,0,0,0,0,0,0,0,
5.414098, 18:26:57.921,0,0,0,0,0,0,0,0,0,
5.433247, 18:26:57.939,0,0,0,0,0,0,0,0,0,
5.451102, 18:26:57.958,0,0,0,0,0,0,0,0,0,
5.46954, 18:26:57.976,0,0,0,0,0,0,0,0,0,
5.490473, 18:26:57.997,0,0,0,0,0,0,0,0,0,
5.510607, 18:26:58.018,0,0,0,0,0,0,0,0,0,
5.53361, 18:26:58.040,0,0,0,0,0,0,0,0,0,
5.558664, 18:26:58.065,0,0,0,0,0,0,0,0,0,
5.581725, 18:26:58.090,0,0,0,0,0,0,0,0,0,
5.60128, 18:26:58.108,0,0,0,0,0,0,0,0,0,
5.618461, 18:26:58.125,0,0,0,0,0,0,0,0,0,
5.637666, 18:26:58.144,0,0,0,0,0,0,0,0,0,
5.657355, 18:26:58.163,0,0,0,0,0,0,0,0,0,
5.683217, 18:26:58.190,0,0,0,0,0,0,0,0,0,
5.701703, 18:26:58.208,0,0,0,0,0,0,0,0,0,
5.718385, 18:26:58.224,0,0,0,0,0,0,0,0,0,
5.73763, 18:26:58.244,0,0,0,0,0,0,0,0,0,
5.754368, 18:26:58.261,0,0,0,0,0,0,0,0,0,
5.777623, 18:26:58.284,0,0,0,0,0,0,0,0,0,
5.801621, 18:26:58.308,0,0,0,0,0,0,0,0,0,
5.821743, 18:26:58.328,0,0,0,0,0,0,0,0,0,
5.83841, 18:26:58.344,0,0,0,0,0,0,0,0,0,
5.857584, 18:26:58.364,0,0,0,0,0,0,0,0,0,
5.874271, 18:26:58.381,0,0,0,0,0,0,0,0,0,
5.893399, 18:26:58.400,0,0,0,0,0,0,0,0,0,
5.913443, 18:26:58.420,0,0,0,0,0,0,0,0,0,
5.93379, 18:26:58.440,0,0,0,0,0,0,0,0,0,
5.950493, 18:26:58.457,0,0,0,0,0,0,0,0,0,
5.969427, 18:26:58.476,0,0,0,0,0,0,0,0,0,
5.986225, 18:26:58.493,0,0,0,0,0,0,0,0,0,
6.006263, 18:26:58.512,0,0,0,0,0,0,0,0,0,
6.02531, 18:26:58.532,0,0,0,0,0,0,0,0,0,
6.041977, 18:26:58.548,0,0,0,0,0,0,0,0,0,
6.061679, 18:26:58.568,0,0,0,0,0,0,0,0,0,
6.081923, 18:26:58.589,0,0,0,0,0,0,0,0,0,
6.101635, 18:26:58.608,0,0,0,0,0,0,0,0,0,
6.118303, 18:26:58.625,0,0,0,0,0,0,0,0,0,
6.134993, 18:26:58.641,0,0,0,0,0,0,0,0,0,
6.153913, 18:26:58.660,0,0,0,0,0,0,0,0,0,
6.17451, 18:26:58.681,0,0,0,0,0,0,0,0,0,
6.193358, 18:26:58.699,0,0,0,0,0,0,0,0,0,
6.21371, 18:26:58.721,0,0,0,0,0,0,0,0,0,
6.233416, 18:26:58.740,0,0,0,0,0,0,0,0,0,
6.253949, 18:26:58.760,0,0,0,0,0,0,0,0,0,
6.270616, 18:26:58.777,0,0,0,0,0,0,0,0,0,
6.29019, 18:26:58.796,0,0,0,0,0,0,0,0,0,
6.306856, 18:26:58.813,0,0,0,0,0,0,0,0,0,
6.327187, 18:26:58.834,0,0,0,0,0,0,0,0,0,
6.345818, 18:26:58.852,0,0,0,0,0,0,0,0,0,
6.366188, 18:26:58.873,0,0,0,0,0,0,0,0,0,
6.386389, 18:26:58.894,0,0,0,0,0,0,0,0,0,
6.405454, 18:26:58.912,0,0,0,0,0,0,0,0,0,
6.42942, 18:26:58.936,0,0,0,0,0,0,0,0,0,
6.446098, 18:26:58.952,0,0,0,0,0,0,0,0,0,
6.466344, 18:26:58.973,0,0,0,0,0,0,0,0,0,
6.488013, 18:26:58.994,0,0,0,0,0,0,0,0,0,
6.505844, 18:26:59.012,0,0,0,0,0,0,0,0,0,
6.525938, 18:26:59.032,0,0,0,0,0,0,0,0,0,
6.542702, 18:26:59.049,0,0,0,0,0,0,0,0,0,
6.561647, 18:26:59.068,0,0,0,0,0,0,0,0,0,
6.578327, 18:26:59.085,0,0,0,0,0,0,0,0,0,
6.597622, 18:26:59.104,0,0,0,0,0,0,0,0,0,
6.614314, 18:26:59.121,0,0,0,0,0,0,0,0,0,
6.638083, 18:26:59.144,0,0,0,0,0,0,0,0,0,
6.658018, 18:26:59.164,0,0,0,0,0,0,0,0,0,
6.68162, 18:26:59.189,0,0,0,0,0,0,0,0,0,
6.701928, 18:26:59.208,0,0,0,0,0,0,0,0,0,
6.718781, 18:26:59.224,0,0,0,0,0,0,0,0,0,
6.735576, 18:26:59.242,0,0,0,0,0,0,0,0,0,
6.753784, 18:26:59.260,0,0,0,0,0,0,0,0,0,
6.773647, 18:26:59.280,0,0,0,0,0,0,0,0,0,
6.794243, 18:26:59.300,0,0,0,0,0,0,0,0,0,
6.81091, 18:26:59.317,0,0,0,0,0,0,0,0,0,
6.829291, 18:26:59.336,0,0,0,0,0,0,0,0,0,
6.849469, 18:26:59.356,0,0,0,0,0,0,0,0,0,
6.866136, 18:26:59.372,0,0,0,0,0,0,0,0,0,
6.882951, 18:26:59.390,0,0,0,0,0,0,0,0,0,
6.905571, 18:26:59.412,0,0,0,0,0,0,0,0,0,
6.925194, 18:26:59.431,0,0,0,0,0,0,0,0,0,
6.941861, 18:26:59.448,0,0,0,0,0,0,0,0,0,
6.966286, 18:26:59.473,0,0,0,0,0,0,0,0,0,
6.985445, 18:26:59.492,0,0,0,0,0,0,0,0,0,
7.002111, 18:26:59.509,0,0,0,0,0,0,0,0,0,
7.021891, 18:26:59.529,0,0,0,0,0,0,0,0,0,
7.041076, 18:26:59.548,0,0,0,0,0,0,0,0,0,
7.065603, 18:26:59.572,0,0,0,0,0,0,0,0,0,
7.08227, 18:26:59.590,0,0,0,0,0,0,0,0,0,
7.101957, 18:26:59.608,0,0,0,0,0,0,0,0,0,
7.122557, 18:26:59.629,0,0,0,0,0,0,0,0,0,
7.141458, 18:26:59.648,0,0,0,0,0,0,0,0,0,
7.161699, 18:26:59.668,0,0,0,0,0,0,0,0,0,
7.181718, 18:26:59.688,0,0,0,0,0,0,0,0,0,
7.201346, 18:26:59.708,0,0,0,0,0,0,0,0,0,
7.218014, 18:26:59.724,0,0,0,0,0,0,0,0,0,
7.237659, 18:26:59.744,0,0,0,0,0,0,0,0,0,
7.261791, 18:26:59.769,0,0,0,0,0,0,0,0,0,
7.287057, 18:26:59.793,0,0,0,0,0,0,0,0,0,
7.305629, 18:26:59.812,0,0,0,0,0,0,0,0,0,
7.325957, 18:26:59.832,0,0,0,0,0,0,0,0,0,
7.346232, 18:26:59.854,0,0,0,0,0,0,0,0,0,
7.365549, 18:26:59.872,0,0,0,0,0,0,0,0,0,
7.385911, 18:26:59.892,0,0,0,0,0,0,0,0,0,
7.407509, 18:26:59.914,0,0,0,0,0,0,0,0,0,
7.425458, 18:26:59.932,0,0,0,0,0,0,0,0,0,
7.446191, 18:26:59.953,0,0,0,0,0,0,0,0,0,
7.468642, 18:26:59.975,0,0,0,0,0,0,0,0,0,
7.4934, 18:27:00.000,0,0,0,0,0,0,0,0,0,
7.513808, 18:27:00.022,0,0,0,0,0,0,0,0,0,
7.533741, 18:27:00.040,0,0,0,0,0,0,0,0,0,
7.553938, 18:27:00.061,0,0,0,0,0,0,0,0,0,
7.573373, 18:27:00.080,0,0,0,0,0,0,0,0,0,
7.593507, 18:27:00.100,0,0,0,0,0,0,0,0,0,
7.614122, 18:27:00.121,0,0,0,0,0,0,0,0,0,
7.633728, 18:27:00.140,0,0,0,0,0,0,0,0,0,
7.65338, 18:27:00.160,0,0,0,0,0,0,0,0,0,
7.673679, 18:27:00.180,0,0,0,0,0,0,0,0,0,
7.697672, 18:27:00.204,0,0,0,0,0,0,0,0,0,
7.717855, 18:27:00.224,0,0,0,0,0,0,0,0,0,
7.737389, 18:27:00.244,0,0,0,0,0,0,0,0,0,
7.76202, 18:27:00.269,0,0,0,0,0,0,0,0,0,
7.782188, 18:27:00.289,0,0,0,0,0,0,0,0,0,
7.801147, 18:27:00.307,0,0,0,0,0,0,0,0,0,
7.818731, 18:27:00.325,0,0,0,0,0,0,0,0,0,
7.837663, 18:27:00.344,0,0,0,0,0,0,0,0,0,
7.857754, 18:27:00.364,0,0,0,0,0,0,0,0,0,
7.874421, 18:27:00.381,0,0,0,0,0,0,0,0,0,
7.893585, 18:27:00.400,0,0,0,0,0,0,0,0,0,
7.918063, 18:27:00.425,0,0,0,0,0,0,0,0,0,
7.937841, 18:27:00.444,0,0,0,0,0,0,0,0,0,
7.958166, 18:27:00.465,0,0,0,0,0,0,0,0,0,
7.978844, 18:27:00.486,0,0,0,0,0,0,0,0,0,
7.997396, 18:27:00.504,0,0,0,0,0,0,0,0,0,
8.018268, 18:27:00.525,0,0,0,0,0,0,0,0,0,
8.037135, 18:27:00.543,0,0,0,0,0,0,0,0,0,
8.057687, 18:27:00.564,0,0,0,0,0,0,0,0,0,
8.074354, 18:27:00.581,0,0,0,0,0,0,0,0,0,
8.094087, 18:27:00.600,0,0,0,0,0,0,0,0,0,
8.117832, 18:27:00.624,0,0,0,0,0,0,0,0,0,
8.137414, 18:27:00.644,0,0,0,0,0,0,0,0,0,
8.162346, 18:27:00.669,0,0,0,0,0,0,0,0,0,
8.181299, 18:27:00.688,0,0,0,0,0,0,0,0,0,
8.201978, 18:27:00.708,0,0,0,0,0,0,0,0,0,
8.22114, 18:27:00.727,0,0,0,0,0,0,0,0,0,
8.238039, 18:27:00.744,0,0,0,0,0,0,0,0,0,
8.257997, 18:27:00.764,0,0,0,0,0,0,0,0,0,
8.27751, 18:27:00.785,0,0,0,0,0,0,0,0,0,
8.297766, 18:27:00.804,0,0,0,0,0,0,0,0,0,
8.317446, 18:27:00.824,0,0,0,0,0,0,0,0,0,
8.337407, 18:27:00.844,0,0,0,0,0,0,0,0,0,
8.357603, 18:27:00.864,0,0,0,0,0,0,0,0,0,
8.374269, 18:27:00.881,0,0,0,0,0,0,0,0,0,
8.394244, 18:27:00.901,0,0,0,0,0,0,0,0,0,
8.414069, 18:27:00.921,0,0,0,0,0,0,0,0,0,
8.435206, 18:27:00.942,0,0,0,0,0,0,0,0,0,
8.453372, 18:27:00.960,0,0,0,0,0,0,0,0,0,
8.473891, 18:27:00.980,0,0,0,0,0,0,0,0,0,
8.493752, 18:27:01.000,0,0,0,0,0,0,0,0,0,
8.5135, 18:27:01.020,0,0,0,0,0,0,0,0,0,
8.53406, 18:27:01.041,0,0,0,0,0,0,0,0,0,
8.557069, 18:27:01.064,0,0,0,0,0,0,0,0,0,
8.578015, 18:27:01.085,0,0,0,0,0,0,0,0,0,
8.597586, 18:27:01.104,0,0,0,0,0,0,0,0,0,
8.618316, 18:27:01.125,0,0,0,0,0,0,0,0,0,
8.635089, 18:27:01.142,0,0,0,0,0,0,0,0,0,
8.656374, 18:27:01.163,0,0,0,0,0,0,0,0,0,
8.677506, 18:27:01.184,0,0,0,0,0,0,0,0,0,
8.697388, 18:27:01.204,0,0,0,0,0,0,0,0,0,
8.714054, 18:27:01.221,0,0,0,0,0,0,0,0,0,
8.738207, 18:27:01.245,0,0,0,0,0,0,0,0,0,
8.758674, 18:27:01.266,0,0,0,0,0,0,0,0,0,
8.777272, 18:27:01.284,0,0,0,0,0,0,0,0,0,
8.797744, 18:27:01.304,0,0,0,0,0,0,0,0,0,
8.814994, 18:27:01.321,0,0,0,0,0,0,0,0,0,
8.833633, 18:27:01.340,0,0,0,0,0,0,0,0,0,
8.853436, 18:27:01.361,0,0,0,0,0,0,0,0,0,
8.873769, 18:27:01.380,0,0,0,0,0,0,0,0,0,
8.893873, 18:27:01.401,0,0,0,0,0,0,0,0,0,
8.918189, 18:27:01.425,0,0,0,0,0,0,0,0,0,
8.942515, 18:27:01.450,0,0,0,0,0,0,0,0,0,
8.966322, 18:27:01.473,0,0,0,0,0,0,0,0,0,
8.985604, 18:27:01.492,0,0,0,0,0,0,0,0,0,
9.006949, 18:27:01.513,0,0,0,0,0,0,0,0,0,
9.029777, 18:27:01.536,0,0,0,0,0,0,0,0,0,
9.050318, 18:27:01.557,0,0,0,0,0,0,0,0,0,
9.069422, 18:27:01.576,0,0,0,0,0,0,0,0,0,
9.086089, 18:27:01.593,0,0,0,0,0,0,0,0,0,
9.105956, 18:27:01.612,0,0,0,0,0,0,0,0,0,
9.125193, 18:27:01.632,0,0,0,0,0,0,0,0,0,
9.145532, 18:27:01.652,0,0,0,0,0,0,0,0,0,
9.167118, 18:27:01.673,0,0,0,0,0,0,0,0,0,
9.18537, 18:27:01.692,0,0,0,0,0,0,0,0,0,
9.202241, 18:27:01.709,0,0,0,0,0,0,0,0,0,
9.221674, 18:27:01.728,0,0,0,0,0,0,0,0,0,
9.238347, 18:27:01.744,0,0,0,0,0,0,0,0,0,
9.257594, 18:27:01.764,0,0,0,0,0,0,0,0,0,
9.277546, 18:27:01.784,0,0,0,0,0,0,0,0,0,
9.297575, 18:27:01.804,0,0,0,0,0,0,0,0,0,
9.314242, 18:27:01.821,0,0,0,0,0,0,0,0,0,
9.333456, 18:27:01.840,0,0,0,0,0,0,0,0,0,
9.358355, 18:27:01.865,0,0,0,0,0,0,0,0,0,
9.3772, 18:27:01.884,0,0,0,0,0,0,0,0,0,
9.393867, 18:27:01.901,0,0,0,0,0,0,0,0,0,
9.410646, 18:27:01.917,0,0,0,0,0,0,0,0,0,
9.429947, 18:27:01.937,0,0,0,0,0,0,0,0,0,
9.449416, 18:27:01.956,0,0,0,0,0,0,0,0,0,
9.470062, 18:27:01.976,0,0,0,0,0,0,0,0,0,
9.489714, 18:27:01.996,0,0,0,0,0,0,0,0,0,
9.510314, 18:27:02.017,0,0,0,0,0,0,0,0,0,
9.529491, 18:27:02.036,0,0,0,0,0,0,0,0,0,
9.55032, 18:27:02.057,0,0,0,0,0,0,0,0,0,
9.573298, 18:27:02.080,0,0,0,0,0,0,0,0,0,
9.593821, 18:27:02.100,0,0,0,0,0,0,0,0,0,
9.614494, 18:27:02.121,0,0,0,0,0,0,0,0,0,
9.633853, 18:27:02.141,0,0,0,0,0,0,0,0,0,
9.653663, 18:27:02.160,0,0,0,0,0,0,0,0,0,
9.678082, 18:27:02.184,0,0,0,0,0,0,0,0,0,
9.697797, 18:27:02.205,0,0,0,0,0,0,0,0,0,
9.718249, 18:27:02.225,0,0,0,0,0,0,0,0,0,
9.737346, 18:27:02.243,0,0,0,0,0,0,0,0,0,
9.754013, 18:27:02.260,0,0,0,0,0,0,0,0,0,
9.782195, 18:27:02.289,0,0,0,0,0,0,0,0,0,
9.801652, 18:27:02.308,0,0,0,0,0,0,0,0,0,
9.825465, 18:27:02.332,0,0,0,0,0,0,0,0,0,
9.842132, 18:27:02.349,0,0,0,0,0,0,0,0,0,
9.861729, 18:27:02.368,0,0,0,0,0,0,0,0,0,
9.881907, 18:27:02.389,0,0,0,0,0,0,0,0,0,
9.901265, 18:27:02.408,0,0,0,0,0,0,0,0,0,
9.925636, 18:27:02.432,0,0,0,0,0,0,0,0,0,
9.945861, 18:27:02.453,0,0,0,0,0,0,0,0,0,
9.973459, 18:27:02.480,0,0,0,0,0,0,0,0,0,
9.99831, 18:27:02.505,0,0,0,0,0,0,0,0,0,
10.01816, 18:27:02.525,0,0,0,0,0,0,0,0,0,
10.03743, 18:27:02.544,0,0,0,0,0,0,0,0,0,
10.05794, 18:27:02.564,0,0,0,0,0,0,0,0,0,
10.07741, 18:27:02.584,0,0,0,0,0,0,0,0,0,
10.09797, 18:27:02.605,0,0,0,0,0,0,0,0,0,
10.11822, 18:27:02.625,0,0,0,0,0,0,0,0,0,
10.13763, 18:27:02.644,0,0,0,0,0,0,0,0,0,
10.15809, 18:27:02.664,0,0,0,0,0,0,0,0,0,
10.17718, 18:27:02.684,0,0,0,0,0,0,0,0,0,
10.19745, 18:27:02.704,0,0,0,0,0,0,0,0,0,
10.21797, 18:27:02.725,0,0,0,0,0,0,0,0,0,
10.2374, 18:27:02.744,0,0,0,0,0,0,0,0,0,
10.25406, 18:27:02.761,0,0,0,0,0,0,0,0,0,
10.28164, 18:27:02.789,0,0,0,0,0,0,0,0,0,
10.30166, 18:27:02.808,0,0,0,0,0,0,0,0,0,
10.31833, 18:27:02.824,0,0,0,0,0,0,0,0,0,
10.33501, 18:27:02.841,0,0,0,0,0,0,0,0,0,
10.35381, 18:27:02.860,0,0,0,0,0,0,0,0,0,
10.37378, 18:27:02.880,0,0,0,0,0,0,0,0,0,
10.39315, 18:27:02.900,0,0,0,0,0,0,0,0,0,
10.41818, 18:27:02.925,0,0,0,0,0,0,0,0,0,
10.43738, 18:27:02.944,0,0,0,0,0,0,0,0,0,
10.45774, 18:27:02.964,0,0,0,0,0,0,0,0,0,
10.47842, 18:27:02.986,0,0,0,0,0,0,0,0,0,
10.49737, 18:27:03.004,0,0,0,0,0,0,0,0,0,
10.51772, 18:27:03.024,0,0,0,0,0,0,0,0,0,
10.53765, 18:27:03.044,0,0,0,0,0,0,0,0,0,
10.55432, 18:27:03.061,0,0,0,0,0,0,0,0,0,
10.57443, 18:27:03.081,0,0,0,0,0,0,0,0,0,
10.59331, 18:27:03.100,0,0,0,0,0,0,0,0,0,
10.61812, 18:27:03.125,0,0,0,0,0,0,0,0,0,
10.63781, 18:27:03.145,0,0,0,0,0,0,0,0,0,
10.65759, 18:27:03.164,0,0,0,0,0,0,0,0,0,
10.67742, 18:27:03.185,0,0,0,0,0,0,0,0,0,
10.69787, 18:27:03.205,0,0,0,0,0,0,0,0,0,
10.71778, 18:27:03.225,0,0,0,0,0,0,0,0,0,
10.73769, 18:27:03.244,0,0,0,0,0,0,0,0,0,
10.75811, 18:27:03.265,0,0,0,0,0,0,0,0,0,
10.77705, 18:27:03.283,0,0,0,0,0,0,0,0,0,
10.79837, 18:27:03.305,0,0,0,0,0,0,0,0,0,
10.82165, 18:27:03.328,0,0,0,0,0,0,0,0,0,
10.84174, 18:27:03.348,0,0,0,0,0,0,0,0,0,
10.86113, 18:27:03.367,0,0,0,0,0,0,0,0,0,
10.8778, 18:27:03.384,0,0,0,0,0,0,0,0,0,
10.89455, 18:27:03.401,0,0,0,0,0,0,0,0,0,
10.91345, 18:27:03.421,0,0,0,0,0,0,0,0,0,
10.93316, 18:27:03.440,0,0,0,0,0,0,0,0,0,
10.95505, 18:27:03.461,0,0,0,0,0,0,0,0,0,
10.97335, 18:27:03.480,0,0,0,0,0,0,0,0,0,
10.99395, 18:27:03.501,0,0,0,0,0,0,0,0,0,
11.01329, 18:27:03.520,0,0,0,0,0,0,0,0,0,
11.03784, 18:27:03.544,0,0,0,0,0,0,0,0,0,
11.05771, 18:27:03.564,0,0,0,0,0,0,0,0,0,
11.07766, 18:27:03.585,0,0,0,0,0,0,0,0,0,
11.09798, 18:27:03.605,0,0,0,0,0,0,0,0,0,
11.11897, 18:27:03.626,0,0,0,0,0,0,0,0,0,
11.13794, 18:27:03.645,0,0,0,0,0,0,0,0,0,
11.1617, 18:27:03.669,0,0,0,0,0,0,0,0,0,
11.18145, 18:27:03.689,0,0,0,0,0,0,0,0,0,
11.20889, 18:27:03.715,0,0,0,0,0,0,0,0,0,
11.23591, 18:27:03.742,0,0,0,0,0,0,0,0,0,
11.27853, 18:27:03.786,0,0,0,0,0,0,0,0,0,
11.29747, 18:27:03.804,0,0,0,0,0,0,0,0,0,
11.31825, 18:27:03.825,0,0,0,0,0,0,0,0,0,
11.33775, 18:27:03.844,0,0,0,0,0,0,0,0,0,
11.35793, 18:27:03.864,0,0,0,0,0,0,0,0,0,
11.37732, 18:27:03.884,0,0,0,0,0,0,0,0,0,
11.39865, 18:27:03.905,0,0,0,0,0,0,0,0,0,
11.41766, 18:27:03.925,0,0,0,0,0,0,0,0,0,
11.43886, 18:27:03.945,0,0,0,0,0,0,0,0,0,
11.46183, 18:27:03.969,0,0,0,0,0,0,0,0,0,
11.48202, 18:27:03.989,0,0,0,0,0,0,0,0,0,
11.50224, 18:27:04.009,0,0,0,0,0,0,0,0,0,
11.52287, 18:27:04.030,0,0,0,0,0,0,0,0,0,
11.55397, 18:27:04.060,0,0,0,0,0,0,0,0,0,
11.57784, 18:27:04.085,0,0,0,0,0,0,0,0,0,
11.59818, 18:27:04.105,0,0,0,0,0,0,0,0,0,
11.61949, 18:27:04.126,0,0,0,0,0,0,0,0,0,
11.63753, 18:27:04.144,0,0,0,0,0,0,0,0,0,
11.65762, 18:27:04.164,0,0,0,0,0,0,0,0,0,
11.6823, 18:27:04.190,0,0,0,0,0,0,0,0,0,
11.70157, 18:27:04.208,0,0,0,0,0,0,0,0,0,
11.73039, 18:27:04.237,0,0,0,0,0,0,0,0,0,
11.75895, 18:27:04.266,0,0,0,0,0,0,0,0,0,
11.77798, 18:27:04.285,0,0,0,0,0,0,0,0,0,
11.80193, 18:27:04.309,0,0,0,0,0,0,0,0,0,
11.8221, 18:27:04.329,0,0,0,0,0,0,0,0,0,
11.84174, 18:27:04.348,0,0,0,0,0,0,0,0,0,
11.86884, 18:27:04.375,0,0,0,0,0,0,0,0,0,
11.9, 18:27:04.406,0,0,0,0,0,0,0,0,0,
11.92229, 18:27:04.429,0,0,0,0,0,0,0,0,0,
11.9486, 18:27:04.455,0,0,0,0,0,0,0,0,0,
