Elapsed_Time, System_Time, Euler_Roll, Euler_Pitch, Euler_Yaw, Gyro_Roll, Gyro_Pitch, Gyro_Yaw, Accel_x, Accel_y, Accel_z
0.02, 12:13:38.716,0,0,0,0,0,0,0,0,0,
0.04, 12:13:39.820,0,0,0,0,0,0,0,0,0,
0.3733333, 12:13:58.277,0,0,0,0,0,0,0,0,0,
0.6588356, 12:13:58.583,0,0,0,0,0,0,0,0,0,
0.7649785, 12:13:58.640,0,0,0,0,0,0,0,0,0,
0.866063, 12:13:58.742,0,0,0,0,0,0,0,0,0,
0.9157516, 12:13:58.788,0,0,0,0,0,0,0,0,0,
1.032192, 12:13:58.908,0,0,0,0,0,0,0,0,0,
1.078776, 12:13:58.951,0,0,0,0,0,0,0,0,0,
1.11524, 12:13:58.986,0,0,0,0,0,0,0,0,0,
1.15488, 12:13:59.026,0,0,0,0,0,0,0,0,0,
1.488213, 12:13:59.494,0,0,0,0,0,0,0,0,0,
1.559184, 12:13:59.551,0,0,0,0,0,0,0,0,0,
1.60534, 12:13:59.597,0,0,0,0,0,0,0,0,0,
1.64991, 12:13:59.639,0,0,0,0,0,0,0,0,0,
1.683135, 12:13:59.673,0,0,0,0,0,0,0,0,0,
1.784336, 12:13:59.776,0,0,0,0,0,0,0,0,0,
1.832485, 12:13:59.821,0,0,0,0,0,0,0,0,0,
1.868513, 12:13:59.858,0,0,0,0,0,0,0,0,0,
1.90133, 12:13:59.892,0,0,0,0,0,0,0,0,0,
1.93662, 12:13:59.926,0,0,0,0,0,0,0,0,0,
1.965593, 12:13:59.956,0,0,0,0,0,0,0,0,0,
2.005057, 12:13:59.994,0,0,0,0,0,0,0,0,0,
2.039284, 12:14:00.027,0,0,0,0,0,0,0,0,0,
2.074101, 12:14:00.063,0,0,0,0,0,0,0,0,0,
2.191563, 12:14:00.187,0,0,0,0,0,0,0,0,0,
2.235938, 12:14:00.226,0,0,0,0,0,0,0,0,0,
2.273108, 12:14:01.131,0,0,0,0,0,0,0,0,0,
2.606441, 12:14:08.755,0,0,0,0,0,0,0,0,0,
2.939775, 12:14:10.208,0,0,0,0,0,0,0,0,0,
3.273108, 12:14:10.544,0,0,0,0,0,0,0,0,0,
3.324224, 12:14:10.582,0,0,0,0,0,0,0,0,0,
3.35903, 12:14:10.614,0,0,0,0,0,0,0,0,0,
3.387953, 12:14:10.644,0,0,0,0,0,0,0,0,0,
3.479563, 12:14:10.739,0,0,0,0,0,0,0,0,0,
3.530958, 12:14:10.788,0,0,0,0,0,0,0,0,0,
3.567582, 12:14:10.824,0,0,0,0,0,0,0,0,0,
3.599893, 12:14:10.854,0,0,0,0,0,0,0,0,0,
3.627121, 12:14:10.883,0,0,0,0,0,0,0,0,0,
3.657819, 12:14:10.912,0,0,0,0,0,0,0,0,0,
3.688114, 12:14:10.944,0,0,0,0,0,0,0,0,0,
3.720369, 12:14:10.976,0,0,0,0,0,0,0,0,0,
3.751297, 12:14:11.006,0,0,0,0,0,0,0,0,0,
3.779739, 12:14:11.036,0,0,0,0,0,0,0,0,0,
3.811789, 12:14:11.067,0,0,0,0,0,0,0,0,0,
3.844692, 12:14:11.100,0,0,0,0,0,0,0,0,0,
3.876086, 12:14:11.130,0,0,0,0,0,0,0,0,0,
3.907652, 12:14:11.163,0,0,0,0,0,0,0,0,0,
3.940331, 12:14:11.196,0,0,0,0,0,0,0,0,0,
3.971949, 12:14:11.239,0,0,0,0,0,0,0,0,0,
4.018213, 12:14:11.274,0,0,0,0,0,0,0,0,0,
4.096815, 12:14:11.356,0,0,0,0,0,0,0,0,0,
4.130351, 12:14:11.386,0,0,0,0,0,0,0,0,0,
4.166183, 12:14:11.421,0,0,0,0,0,0,0,0,0,
4.199841, 12:14:11.455,0,0,0,0,0,0,0,0,0,
4.232468, 12:14:11.489,0,0,0,0,0,0,0,0,0,
4.2685, 12:14:11.525,0,0,0,0,0,0,0,0,0,
4.301728, 12:14:11.557,0,0,0,0,0,0,0,0,0,
4.334532, 12:14:11.590,0,0,0,0,0,0,0,0,0,
4.367164, 12:14:11.623,0,0,0,0,0,0,0,0,0,
4.403945, 12:14:11.659,0,0,0,0,0,0,0,0,0,
4.433591, 12:14:11.688,0,0,0,0,0,0,0,0,0,
4.462693, 12:14:11.718,0,0,0,0,0,0,0,0,0,
4.504004, 12:14:11.760,0,0,0,0,0,0,0,0,0,
4.538288, 12:14:11.792,0,0,0,0,0,0,0,0,0,
4.568319, 12:14:11.824,0,0,0,0,0,0,0,0,0,
4.599918, 12:14:11.856,0,0,0,0,0,0,0,0,0,
4.631099, 12:14:11.888,0,0,0,0,0,0,0,0,0,
4.670022, 12:14:11.927,0,0,0,0,0,0,0,0,0,
4.714648, 12:14:12.015,0,0,0,0,0,0,0,0,0,
4.789451, 12:14:12.047,0,0,0,0,0,0,0,0,0,
4.830423, 12:14:12.086,0,0,0,0,0,0,0,0,0,
4.864142, 12:14:12.147,0,0,0,0,0,0,0,0,0,
4.922336, 12:14:12.178,0,0,0,0,0,0,0,0,0,
4.952704, 12:14:12.207,0,0,0,0,0,0,0,0,0,
4.985141, 12:14:12.241,0,0,0,0,0,0,0,0,0,
5.016901, 12:14:12.270,0,0,0,0,0,0,0,0,0,
5.048564, 12:14:12.303,0,0,0,0,0,0,0,0,0,
5.079365, 12:14:12.334,0,0,0,0,0,0,0,0,0,
5.109296, 12:14:12.364,0,0,0,0,0,0,0,0,0,
5.143869, 12:14:12.399,0,0,0,0,0,0,0,0,0,
5.175107, 12:14:12.430,0,0,0,0,0,0,0,0,0,
5.203268, 12:14:12.459,0,0,0,0,0,0,0,0,0,
5.232596, 12:14:12.487,0,0,0,0,0,0,0,0,0,
5.263384, 12:14:12.519,0,0,0,0,0,0,0,0,0,
5.296432, 12:14:12.551,0,0,0,0,0,0,0,0,0,
5.326865, 12:14:12.583,0,0,0,0,0,0,0,0,0,
5.357086, 12:14:12.611,0,0,0,0,0,0,0,0,0,
5.386163, 12:14:12.641,0,0,0,0,0,0,0,0,0,
5.416397, 12:14:12.671,0,0,0,0,0,0,0,0,0,
5.451863, 12:14:12.707,0,0,0,0,0,0,0,0,0,
5.486622, 12:14:12.743,0,0,0,0,0,0,0,0,0,
5.519232, 12:14:12.773,0,0,0,0,0,0,0,0,0,
5.547695, 12:14:12.804,0,0,0,0,0,0,0,0,0,
5.579406, 12:14:12.834,0,0,0,0,0,0,0,0,0,
5.611814, 12:14:12.868,0,0,0,0,0,0,0,0,0,
5.647223, 12:14:12.903,0,0,0,0,0,0,0,0,0,
5.677469, 12:14:12.933,0,0,0,0,0,0,0,0,0,
5.708796, 12:14:12.965,0,0,0,0,0,0,0,0,0,
5.73996, 12:14:12.995,0,0,0,0,0,0,0,0,0,
5.775031, 12:14:13.030,0,0,0,0,0,0,0,0,0,
5.814553, 12:14:13.071,0,0,0,0,0,0,0,0,0,
5.852139, 12:14:13.109,0,0,0,0,0,0,0,0,0,
5.893426, 12:14:13.150,0,0,0,0,0,0,0,0,0,
5.931517, 12:14:13.187,0,0,0,0,0,0,0,0,0,
5.97028, 12:14:13.225,0,0,0,0,0,0,0,0,0,
6.000079, 12:14:13.256,0,0,0,0,0,0,0,0,0,
6.031724, 12:14:13.286,0,0,0,0,0,0,0,0,0,
6.061988, 12:14:13.318,0,0,0,0,0,0,0,0,0,
6.09558, 12:14:13.351,0,0,0,0,0,0,0,0,0,
6.132244, 12:14:13.388,0,0,0,0,0,0,0,0,0,
6.162656, 12:14:13.418,0,0,0,0,0,0,0,0,0,
6.193722, 12:14:13.449,0,0,0,0,0,0,0,0,0,
6.22332, 12:14:13.479,0,0,0,0,0,0,0,0,0,
6.260025, 12:14:13.516,0,0,0,0,0,0,0,0,0,
6.296934, 12:14:13.553,0,0,0,0,0,0,0,0,0,
6.330102, 12:14:13.586,0,0,0,0,0,0,0,0,0,
6.359924, 12:14:13.616,0,0,0,0,0,0,0,0,0,
6.389102, 12:14:13.645,0,0,0,0,0,0,0,0,0,
6.42252, 12:14:13.677,0,0,0,0,0,0,0,0,0,
6.455622, 12:14:13.710,0,0,0,0,0,0,0,0,0,
6.485514, 12:14:13.742,0,0,0,0,0,0,0,0,0,
6.519697, 12:14:13.774,0,0,0,0,0,0,0,0,0,
6.552075, 12:14:13.808,0,0,0,0,0,0,0,0,0,
6.587148, 12:14:13.843,0,0,0,0,0,0,0,0,0,
6.620516, 12:14:13.876,0,0,0,0,0,0,0,0,0,
6.652674, 12:14:13.907,0,0,0,0,0,0,0,0,0,
6.682068, 12:14:13.937,0,0,0,0,0,0,0,0,0,
6.716351, 12:14:13.971,0,0,0,0,0,0,0,0,0,
6.749566, 12:14:14.005,0,0,0,0,0,0,0,0,0,
6.786432, 12:14:14.043,0,0,0,0,0,0,0,0,0,
6.81783, 12:14:14.072,0,0,0,0,0,0,0,0,0,
6.85049, 12:14:14.106,0,0,0,0,0,0,0,0,0,
6.884909, 12:14:14.141,0,0,0,0,0,0,0,0,0,
6.922602, 12:14:14.178,0,0,0,0,0,0,0,0,0,
6.958974, 12:14:14.214,0,0,0,0,0,0,0,0,0,
6.991189, 12:14:14.246,0,0,0,0,0,0,0,0,0,
7.020999, 12:14:14.277,0,0,0,0,0,0,0,0,0,
7.052354, 12:14:14.309,0,0,0,0,0,0,0,0,0,
7.098524, 12:14:14.357,0,0,0,0,0,0,0,0,0,
7.144803, 12:14:14.402,0,0,0,0,0,0,0,0,0,
7.478137, 12:14:15.169,0,0,0,0,0,0,0,0,0,
7.81147, 12:14:16.089,0,0,0,0,0,0,0,0,0,
8.144803, 12:14:16.477,0,0,0,0,0,0,0,0,0,
8.196766, 12:14:16.514,0,0,0,0,0,0,0,0,0,
8.228909, 12:14:16.546,0,0,0,0,0,0,0,0,0,
8.374864, 12:14:16.700,0,0,0,0,0,0,0,0,0,
8.424232, 12:14:16.743,0,0,0,0,0,0,0,0,0,
8.460899, 12:14:16.777,0,0,0,0,0,0,0,0,0,
8.794232, 12:14:17.823,0,0,0,0,0,0,0,0,0,
8.858531, 12:14:17.871,0,0,0,0,0,0,0,0,0,
9.011414, 12:14:18.028,0,0,0,0,0,0,0,0,0,
9.057835, 12:14:18.068,0,0,0,0,0,0,0,0,0,
9.097612, 12:14:18.108,0,0,0,0,0,0,0,0,0,
9.131461, 12:14:18.143,0,0,0,0,0,0,0,0,0,
9.165844, 12:14:18.175,0,0,0,0,0,0,0,0,0,
9.200471, 12:14:18.211,0,0,0,0,0,0,0,0,0,
9.233155, 12:14:18.244,0,0,0,0,0,0,0,0,0,
9.268045, 12:14:18.280,0,0,0,0,0,0,0,0,0,
9.301423, 12:14:18.313,0,0,0,0,0,0,0,0,0,
9.334069, 12:14:18.343,0,0,0,0,0,0,0,0,0,
9.366885, 12:14:18.377,0,0,0,0,0,0,0,0,0,
9.400524, 12:14:18.411,0,0,0,0,0,0,0,0,0,
9.435725, 12:14:18.445,0,0,0,0,0,0,0,0,0,
9.470281, 12:14:18.481,0,0,0,0,0,0,0,0,0,
9.502971, 12:14:18.513,0,0,0,0,0,0,0,0,0,
9.542085, 12:14:18.553,0,0,0,0,0,0,0,0,0,
9.580153, 12:14:18.590,0,0,0,0,0,0,0,0,0,
9.615085, 12:14:18.625,0,0,0,0,0,0,0,0,0,
9.647015, 12:14:18.658,0,0,0,0,0,0,0,0,0,
9.683896, 12:14:18.695,0,0,0,0,0,0,0,0,0,
9.72137, 12:14:18.733,0,0,0,0,0,0,0,0,0,
9.761947, 12:14:18.773,0,0,0,0,0,0,0,0,0,
9.796371, 12:14:18.806,0,0,0,0,0,0,0,0,0,
9.82748, 12:14:18.838,0,0,0,0,0,0,0,0,0,
9.859657, 12:14:18.869,0,0,0,0,0,0,0,0,0,
9.893457, 12:14:18.905,0,0,0,0,0,0,0,0,0,
9.926377, 12:14:18.935,0,0,0,0,0,0,0,0,0,
10.00664, 12:14:19.021,0,0,0,0,0,0,0,0,0,
10.05487, 12:14:19.067,0,0,0,0,0,0,0,0,0,
10.10918, 12:14:19.121,0,0,0,0,0,0,0,0,0,
10.15478, 12:14:19.165,0,0,0,0,0,0,0,0,0,
10.19059, 12:14:19.203,0,0,0,0,0,0,0,0,0,
10.22505, 12:14:19.236,0,0,0,0,0,0,0,0,0,
10.26165, 12:14:19.272,0,0,0,0,0,0,0,0,0,
10.29632, 12:14:19.313,0,0,0,0,0,0,0,0,0,
10.33419, 12:14:19.345,0,0,0,0,0,0,0,0,0,
10.37116, 12:14:19.382,0,0,0,0,0,0,0,0,0,
10.40523, 12:14:19.415,0,0,0,0,0,0,0,0,0,
10.43885, 12:14:19.449,0,0,0,0,0,0,0,0,0,
10.47885, 12:14:19.490,0,0,0,0,0,0,0,0,0,
10.51883, 12:14:19.529,0,0,0,0,0,0,0,0,0,
10.55107, 12:14:19.562,0,0,0,0,0,0,0,0,0,
10.58644, 12:14:19.596,0,0,0,0,0,0,0,0,0,
10.62107, 12:14:19.632,0,0,0,0,0,0,0,0,0,
10.65564, 12:14:19.666,0,0,0,0,0,0,0,0,0,
10.6865, 12:14:19.697,0,0,0,0,0,0,0,0,0,
10.71673, 12:14:19.725,0,0,0,0,0,0,0,0,0,
10.78912, 12:14:19.802,0,0,0,0,0,0,0,0,0,
11.12245, 12:14:20.542,0,0,0,0,0,0,0,0,0,
11.2133, 12:14:20.619,0,0,0,0,0,0,0,0,0,
11.25216, 12:14:20.655,0,0,0,0,0,0,0,0,0,
11.33809, 12:14:20.743,0,0,0,0,0,0,0,0,0,
11.40668, 12:14:20.812,0,0,0,0,0,0,0,0,0,
11.44408, 12:14:20.847,0,0,0,0,0,0,0,0,0,
11.47547, 12:14:20.878,0,0,0,0,0,0,0,0,0,
11.50816, 12:14:20.911,0,0,0,0,0,0,0,0,0,
11.54478, 12:14:20.948,0,0,0,0,0,0,0,0,0,
11.58184, 12:14:20.985,0,0,0,0,0,0,0,0,0,
11.61455, 12:14:21.017,0,0,0,0,0,0,0,0,0,
11.64688, 12:14:21.050,0,0,0,0,0,0,0,0,0,
11.67854, 12:14:21.080,0,0,0,0,0,0,0,0,0,
11.71146, 12:14:21.113,0,0,0,0,0,0,0,0,0,
11.74798, 12:14:21.150,0,0,0,0,0,0,0,0,0,
11.78004, 12:14:21.184,0,0,0,0,0,0,0,0,0,
11.81322, 12:14:21.215,0,0,0,0,0,0,0,0,0,
11.84533, 12:14:21.248,0,0,0,0,0,0,0,0,0,
11.88181, 12:14:21.285,0,0,0,0,0,0,0,0,0,
11.91913, 12:14:21.321,0,0,0,0,0,0,0,0,0,
11.95501, 12:14:21.358,0,0,0,0,0,0,0,0,0,
11.99848, 12:14:21.401,0,0,0,0,0,0,0,0,0,
12.03596, 12:14:21.437,0,0,0,0,0,0,0,0,0,
12.07401, 12:14:21.476,0,0,0,0,0,0,0,0,0,
12.10562, 12:14:21.508,0,0,0,0,0,0,0,0,0,
12.13605, 12:14:21.538,0,0,0,0,0,0,0,0,0,
12.16811, 12:14:21.570,0,0,0,0,0,0,0,0,0,
12.21085, 12:14:21.614,0,0,0,0,0,0,0,0,0,
12.24557, 12:14:21.648,0,0,0,0,0,0,0,0,0,
12.2759, 12:14:21.677,0,0,0,0,0,0,0,0,0,
12.30404, 12:14:21.707,0,0,0,0,0,0,0,0,0,
12.33789, 12:14:21.740,0,0,0,0,0,0,0,0,0,
12.37531, 12:14:21.778,0,0,0,0,0,0,0,0,0,
12.41137, 12:14:21.813,0,0,0,0,0,0,0,0,0,
12.44159, 12:14:21.844,0,0,0,0,0,0,0,0,0,
12.47272, 12:14:21.874,0,0,0,0,0,0,0,0,0,
12.5031, 12:14:21.906,0,0,0,0,0,0,0,0,0,
12.53905, 12:14:21.940,0,0,0,0,0,0,0,0,0,
12.57252, 12:14:21.975,0,0,0,0,0,0,0,0,0,
12.60383, 12:14:22.006,0,0,0,0,0,0,0,0,0,
12.63938, 12:14:22.040,0,0,0,0,0,0,0,0,0,
12.66985, 12:14:22.072,0,0,0,0,0,0,0,0,0,
12.70591, 12:14:22.108,0,0,0,0,0,0,0,0,0,
12.73879, 12:14:22.140,0,0,0,0,0,0,0,0,0,
12.7688, 12:14:22.171,0,0,0,0,0,0,0,0,0,
12.80216, 12:14:22.204,0,0,0,0,0,0,0,0,0,
12.83316, 12:14:22.235,0,0,0,0,0,0,0,0,0,
12.86769, 12:14:22.270,0,0,0,0,0,0,0,0,0,
12.90277, 12:14:22.305,0,0,0,0,0,0,0,0,0,
12.93313, 12:14:22.335,0,0,0,0,0,0,0,0,0,
12.96225, 12:14:22.365,0,0,0,0,0,0,0,0,0,
12.99334, 12:14:22.394,0,0,0,0,0,0,0,0,0,
13.02874, 12:14:22.431,0,0,0,0,0,0,0,0,0,
13.06423, 12:14:22.468,0,0,0,0,0,0,0,0,0,
13.10369, 12:14:22.506,0,0,0,0,0,0,0,0,0,
13.14627, 12:14:22.550,0,0,0,0,0,0,0,0,0,
13.18874, 12:14:22.592,0,0,0,0,0,0,0,0,0,
13.22402, 12:14:22.627,0,0,0,0,0,0,0,0,0,
13.25434, 12:14:22.658,0,0,0,0,0,0,0,0,0,
13.316, 12:14:22.724,0,0,0,0,0,0,0,0,0,
13.38137, 12:14:22.791,0,0,0,0,0,0,0,0,0,
13.42179, 12:14:22.823,0,0,0,0,0,0,0,0,0,
13.45111, 12:14:22.852,0,0,0,0,0,0,0,0,0,
13.50572, 12:14:22.910,0,0,0,0,0,0,0,0,0,
13.55206, 12:14:22.955,0,0,0,0,0,0,0,0,0,
13.59368, 12:14:22.997,0,0,0,0,0,0,0,0,0,
13.62692, 12:14:23.030,0,0,0,0,0,0,0,0,0,
13.66238, 12:14:23.065,0,0,0,0,0,0,0,0,0,
13.69941, 12:14:23.103,0,0,0,0,0,0,0,0,0,
13.73212, 12:14:23.135,0,0,0,0,0,0,0,0,0,
13.76407, 12:14:23.167,0,0,0,0,0,0,0,0,0,
13.79942, 12:14:23.201,0,0,0,0,0,0,0,0,0,
13.83027, 12:14:23.234,0,0,0,0,0,0,0,0,0,
13.86646, 12:14:23.268,0,0,0,0,0,0,0,0,0,
13.90008, 12:14:23.302,0,0,0,0,0,0,0,0,0,
13.93224, 12:14:23.333,0,0,0,0,0,0,0,0,0,
13.96198, 12:14:23.365,0,0,0,0,0,0,0,0,0,
13.99416, 12:14:23.395,0,0,0,0,0,0,0,0,0,
14.03149, 12:14:23.434,0,0,0,0,0,0,0,0,0,
14.06615, 12:14:23.469,0,0,0,0,0,0,0,0,0,
14.09892, 12:14:23.500,0,0,0,0,0,0,0,0,0,
14.12904, 12:14:23.532,0,0,0,0,0,0,0,0,0,
14.16191, 12:14:23.564,0,0,0,0,0,0,0,0,0,
14.20543, 12:14:23.607,0,0,0,0,0,0,0,0,0,
14.24518, 12:14:23.649,0,0,0,0,0,0,0,0,0,
14.28195, 12:14:23.686,0,0,0,0,0,0,0,0,0,
14.32631, 12:14:23.729,0,0,0,0,0,0,0,0,0,
14.40683, 12:14:23.812,0,0,0,0,0,0,0,0,0,
14.45578, 12:14:23.858,0,0,0,0,0,0,0,0,0,
14.556, 12:14:23.962,0,0,0,0,0,0,0,0,0,
14.64234, 12:14:24.049,0,0,0,0,0,0,0,0,0,
14.68403, 12:14:24.086,0,0,0,0,0,0,0,0,0,
14.71894, 12:14:24.121,0,0,0,0,0,0,0,0,0,
14.75159, 12:14:24.154,0,0,0,0,0,0,0,0,0,
14.78586, 12:14:24.188,0,0,0,0,0,0,0,0,0,
14.81704, 12:14:24.219,0,0,0,0,0,0,0,0,0,
14.84648, 12:14:24.249,0,0,0,0,0,0,0,0,0,
14.87983, 12:14:24.281,0,0,0,0,0,0,0,0,0,
14.91372, 12:14:24.316,0,0,0,0,0,0,0,0,0,
14.94755, 12:14:24.350,0,0,0,0,0,0,0,0,0,
14.97845, 12:14:24.381,0,0,0,0,0,0,0,0,0,
15.00946, 12:14:24.413,0,0,0,0,0,0,0,0,0,
15.04109, 12:14:24.443,0,0,0,0,0,0,0,0,0,
15.07566, 12:14:24.477,0,0,0,0,0,0,0,0,0,
15.11218, 12:14:24.515,0,0,0,0,0,0,0,0,0,
15.14399, 12:14:24.546,0,0,0,0,0,0,0,0,0,
15.1756, 12:14:24.577,0,0,0,0,0,0,0,0,0,
15.2069, 12:14:24.609,0,0,0,0,0,0,0,0,0,
15.24532, 12:14:24.648,0,0,0,0,0,0,0,0,0,
15.27957, 12:14:24.681,0,0,0,0,0,0,0,0,0,
15.31332, 12:14:24.716,0,0,0,0,0,0,0,0,0,
15.36229, 12:14:24.766,0,0,0,0,0,0,0,0,0,
15.40293, 12:14:24.806,0,0,0,0,0,0,0,0,0,
15.44427, 12:14:24.848,0,0,0,0,0,0,0,0,0,
15.4888, 12:14:24.892,0,0,0,0,0,0,0,0,0,
15.53154, 12:14:24.933,0,0,0,0,0,0,0,0,0,
15.57504, 12:14:24.978,0,0,0,0,0,0,0,0,0,
15.6128, 12:14:25.014,0,0,0,0,0,0,0,0,0,
15.64264, 12:14:25.044,0,0,0,0,0,0,0,0,0,
15.67455, 12:14:25.076,0,0,0,0,0,0,0,0,0,
15.71346, 12:14:25.116,0,0,0,0,0,0,0,0,0,
15.75316, 12:14:25.156,0,0,0,0,0,0,0,0,0,
15.78728, 12:14:25.190,0,0,0,0,0,0,0,0,0,
15.81772, 12:14:25.219,0,0,0,0,0,0,0,0,0,
15.84784, 12:14:25.250,0,0,0,0,0,0,0,0,0,
15.88227, 12:14:25.286,0,0,0,0,0,0,0,0,0,
15.91863, 12:14:25.320,0,0,0,0,0,0,0,0,0,
15.95331, 12:14:25.357,0,0,0,0,0,0,0,0,0,
15.98678, 12:14:25.389,0,0,0,0,0,0,0,0,0,
16.019, 12:14:25.421,0,0,0,0,0,0,0,0,0,
16.05048, 12:14:25.453,0,0,0,0,0,0,0,0,0,
16.0889, 12:14:25.491,0,0,0,0,0,0,0,0,0,
16.12525, 12:14:25.527,0,0,0,0,0,0,0,0,0,
16.15957, 12:14:25.561,0,0,0,0,0,0,0,0,0,
16.19135, 12:14:25.593,0,0,0,0,0,0,0,0,0,
16.22368, 12:14:25.626,0,0,0,0,0,0,0,0,0,
16.25964, 12:14:25.661,0,0,0,0,0,0,0,0,0,
16.29927, 12:14:25.702,0,0,0,0,0,0,0,0,0,
16.33201, 12:14:25.735,0,0,0,0,0,0,0,0,0,
16.37327, 12:14:25.777,0,0,0,0,0,0,0,0,0,
16.40782, 12:14:25.811,0,0,0,0,0,0,0,0,0,
16.44554, 12:14:25.849,0,0,0,0,0,0,0,0,0,
16.47982, 12:14:25.881,0,0,0,0,0,0,0,0,0,
16.51072, 12:14:25.913,0,0,0,0,0,0,0,0,0,
16.54618, 12:14:25.948,0,0,0,0,0,0,0,0,0,
16.58887, 12:14:25.992,0,0,0,0,0,0,0,0,0,
16.63567, 12:14:26.040,0,0,0,0,0,0,0,0,0,
16.68996, 12:14:26.094,0,0,0,0,0,0,0,0,0,
16.72781, 12:14:26.129,0,0,0,0,0,0,0,0,0,
16.76751, 12:14:26.169,0,0,0,0,0,0,0,0,0,
16.80896, 12:14:26.211,0,0,0,0,0,0,0,0,0,
16.87327, 12:14:26.276,0,0,0,0,0,0,0,0,0,
16.91595, 12:14:26.319,0,0,0,0,0,0,0,0,0,
16.95743, 12:14:26.360,0,0,0,0,0,0,0,0,0,
17.00181, 12:14:26.405,0,0,0,0,0,0,0,0,0,
17.04717, 12:14:26.450,0,0,0,0,0,0,0,0,0,
17.08783, 12:14:26.491,0,0,0,0,0,0,0,0,0,
17.12957, 12:14:26.532,0,0,0,0,0,0,0,0,0,
17.17493, 12:14:26.577,0,0,0,0,0,0,0,0,0,
17.21803, 12:14:26.620,0,0,0,0,0,0,0,0,0,
17.25963, 12:14:26.662,0,0,0,0,0,0,0,0,0,
17.29091, 12:14:26.694,0,0,0,0,0,0,0,0,0,
17.32818, 12:14:26.730,0,0,0,0,0,0,0,0,0,
17.36539, 12:14:26.769,0,0,0,0,0,0,0,0,0,
17.40086, 12:14:26.803,0,0,0,0,0,0,0,0,0,
17.43272, 12:14:26.834,0,0,0,0,0,0,0,0,0,
17.46706, 12:14:26.870,0,0,0,0,0,0,0,0,0,
17.50642, 12:14:26.910,0,0,0,0,0,0,0,0,0,
17.54465, 12:14:26.948,0,0,0,0,0,0,0,0,0,
17.5771, 12:14:26.978,0,0,0,0,0,0,0,0,0,
17.60751, 12:14:27.010,0,0,0,0,0,0,0,0,0,
17.64155, 12:14:27.045,0,0,0,0,0,0,0,0,0,
17.67934, 12:14:27.082,0,0,0,0,0,0,0,0,0,
17.71484, 12:14:27.117,0,0,0,0,0,0,0,0,0,
17.75278, 12:14:27.156,0,0,0,0,0,0,0,0,0,
17.78907, 12:14:27.192,0,0,0,0,0,0,0,0,0,
17.83409, 12:14:27.237,0,0,0,0,0,0,0,0,0,
17.87205, 12:14:27.274,0,0,0,0,0,0,0,0,0,
17.9093, 12:14:27.312,0,0,0,0,0,0,0,0,0,
17.94244, 12:14:27.344,0,0,0,0,0,0,0,0,0,
17.974, 12:14:27.376,0,0,0,0,0,0,0,0,0,
18.00473, 12:14:27.407,0,0,0,0,0,0,0,0,0,
18.04097, 12:14:27.444,0,0,0,0,0,0,0,0,0,
18.07401, 12:14:27.475,0,0,0,0,0,0,0,0,0,
18.10954, 12:14:27.512,0,0,0,0,0,0,0,0,0,
18.14113, 12:14:27.545,0,0,0,0,0,0,0,0,0,
18.17291, 12:14:27.574,0,0,0,0,0,0,0,0,0,
18.20789, 12:14:27.609,0,0,0,0,0,0,0,0,0,
18.29057, 12:14:27.696,0,0,0,0,0,0,0,0,0,
18.37152, 12:14:27.776,0,0,0,0,0,0,0,0,0,
18.41117, 12:14:27.813,0,0,0,0,0,0,0,0,0,
18.451, 12:14:27.853,0,0,0,0,0,0,0,0,0,
18.51424, 12:14:27.918,0,0,0,0,0,0,0,0,0,
18.55974, 12:14:27.962,0,0,0,0,0,0,0,0,0,
18.59768, 12:14:28.000,0,0,0,0,0,0,0,0,0,
18.63542, 12:14:28.037,0,0,0,0,0,0,0,0,0,
18.66999, 12:14:28.073,0,0,0,0,0,0,0,0,0,
18.70458, 12:14:28.107,0,0,0,0,0,0,0,0,0,
18.737, 12:14:28.138,0,0,0,0,0,0,0,0,0,
18.77481, 12:14:28.178,0,0,0,0,0,0,0,0,0,
18.81202, 12:14:28.215,0,0,0,0,0,0,0,0,0,
18.84356, 12:14:28.246,0,0,0,0,0,0,0,0,0,
18.87436, 12:14:28.276,0,0,0,0,0,0,0,0,0,
18.91328, 12:14:28.318,0,0,0,0,0,0,0,0,0,
18.97214, 12:14:28.376,0,0,0,0,0,0,0,0,0,
19.02991, 12:14:28.434,0,0,0,0,0,0,0,0,0,
19.07514, 12:14:28.477,0,0,0,0,0,0,0,0,0,
19.11959, 12:14:28.521,0,0,0,0,0,0,0,0,0,
19.15595, 12:14:28.558,0,0,0,0,0,0,0,0,0,
19.18768, 12:14:28.590,0,0,0,0,0,0,0,0,0,
19.22199, 12:14:28.625,0,0,0,0,0,0,0,0,0,
19.26286, 12:14:28.665,0,0,0,0,0,0,0,0,0,
19.30549, 12:14:28.708,0,0,0,0,0,0,0,0,0,
19.34102, 12:14:28.744,0,0,0,0,0,0,0,0,0,
19.37814, 12:14:28.780,0,0,0,0,0,0,0,0,0,
19.41008, 12:14:28.812,0,0,0,0,0,0,0,0,0,
19.44474, 12:14:28.847,0,0,0,0,0,0,0,0,0,
19.48039, 12:14:28.882,0,0,0,0,0,0,0,0,0,
19.51578, 12:14:28.917,0,0,0,0,0,0,0,0,0,
19.54679, 12:14:28.950,0,0,0,0,0,0,0,0,0,
19.57954, 12:14:28.981,0,0,0,0,0,0,0,0,0,
19.61155, 12:14:29.014,0,0,0,0,0,0,0,0,0,
19.64798, 12:14:29.051,0,0,0,0,0,0,0,0,0,
19.682, 12:14:29.085,0,0,0,0,0,0,0,0,0,
19.72107, 12:14:29.124,0,0,0,0,0,0,0,0,0,
19.75577, 12:14:29.157,0,0,0,0,0,0,0,0,0,
19.78824, 12:14:29.190,0,0,0,0,0,0,0,0,0,
19.82416, 12:14:29.226,0,0,0,0,0,0,0,0,0,
19.86201, 12:14:29.265,0,0,0,0,0,0,0,0,0,
19.89501, 12:14:29.297,0,0,0,0,0,0,0,0,0,
19.92662, 12:14:29.329,0,0,0,0,0,0,0,0,0,
19.9597, 12:14:29.360,0,0,0,0,0,0,0,0,0,
19.99598, 12:14:29.398,0,0,0,0,0,0,0,0,0,
20.03968, 12:14:29.442,0,0,0,0,0,0,0,0,0,
20.07892, 12:14:29.483,0,0,0,0,0,0,0,0,0,
20.11994, 12:14:29.524,0,0,0,0,0,0,0,0,0,
20.16935, 12:14:29.574,0,0,0,0,0,0,0,0,0,
20.20721, 12:14:29.610,0,0,0,0,0,0,0,0,0,
20.24127, 12:14:29.644,0,0,0,0,0,0,0,0,0,
20.27721, 12:14:29.679,0,0,0,0,0,0,0,0,0,
20.31344, 12:14:29.716,0,0,0,0,0,0,0,0,0,
20.35131, 12:14:29.754,0,0,0,0,0,0,0,0,0,
20.38689, 12:14:29.789,0,0,0,0,0,0,0,0,0,
20.42106, 12:14:29.825,0,0,0,0,0,0,0,0,0,
20.45787, 12:14:29.860,0,0,0,0,0,0,0,0,0,
20.49659, 12:14:29.899,0,0,0,0,0,0,0,0,0,
20.53292, 12:14:29.936,0,0,0,0,0,0,0,0,0,
20.56628, 12:14:29.969,0,0,0,0,0,0,0,0,0,
20.6001, 12:14:30.002,0,0,0,0,0,0,0,0,0,
20.63285, 12:14:30.034,0,0,0,0,0,0,0,0,0,
20.67085, 12:14:30.073,0,0,0,0,0,0,0,0,0,
20.7101, 12:14:30.112,0,0,0,0,0,0,0,0,0,
20.74406, 12:14:30.146,0,0,0,0,0,0,0,0,0,
20.77563, 12:14:30.177,0,0,0,0,0,0,0,0,0,
20.81006, 12:14:30.213,0,0,0,0,0,0,0,0,0,
20.84695, 12:14:30.250,0,0,0,0,0,0,0,0,0,
20.8827, 12:14:30.286,0,0,0,0,0,0,0,0,0,
20.91774, 12:14:30.319,0,0,0,0,0,0,0,0,0,
20.9488, 12:14:30.351,0,0,0,0,0,0,0,0,0,
20.9826, 12:14:30.386,0,0,0,0,0,0,0,0,0,
21.0217, 12:14:30.425,0,0,0,0,0,0,0,0,0,
21.05826, 12:14:30.460,0,0,0,0,0,0,0,0,0,
21.09066, 12:14:30.494,0,0,0,0,0,0,0,0,0,
21.12717, 12:14:30.530,0,0,0,0,0,0,0,0,0,
21.16189, 12:14:30.564,0,0,0,0,0,0,0,0,0,
21.19819, 12:14:30.600,0,0,0,0,0,0,0,0,0,
21.23695, 12:14:30.640,0,0,0,0,0,0,0,0,0,
21.27529, 12:14:30.678,0,0,0,0,0,0,0,0,0,
21.32064, 12:14:30.725,0,0,0,0,0,0,0,0,0,
21.36399, 12:14:30.767,0,0,0,0,0,0,0,0,0,
21.40027, 12:14:30.803,0,0,0,0,0,0,0,0,0,
21.43196, 12:14:30.834,0,0,0,0,0,0,0,0,0,
21.46516, 12:14:30.868,0,0,0,0,0,0,0,0,0,
21.50116, 12:14:30.903,0,0,0,0,0,0,0,0,0,
21.54311, 12:14:30.946,0,0,0,0,0,0,0,0,0,
21.58174, 12:14:30.985,0,0,0,0,0,0,0,0,0,
21.61409, 12:14:31.016,0,0,0,0,0,0,0,0,0,
21.64837, 12:14:31.051,0,0,0,0,0,0,0,0,0,
21.68129, 12:14:31.090,0,0,0,0,0,0,0,0,0,
21.72513, 12:14:31.127,0,0,0,0,0,0,0,0,0,
21.761, 12:14:31.163,0,0,0,0,0,0,0,0,0,
21.79727, 12:14:31.199,0,0,0,0,0,0,0,0,0,
21.8277, 12:14:31.230,0,0,0,0,0,0,0,0,0,
21.86703, 12:14:31.269,0,0,0,0,0,0,0,0,0,
21.90229, 12:14:31.305,0,0,0,0,0,0,0,0,0,
21.93889, 12:14:31.341,0,0,0,0,0,0,0,0,0,
21.97191, 12:14:31.375,0,0,0,0,0,0,0,0,0,
22.00576, 12:14:31.408,0,0,0,0,0,0,0,0,0,
22.03798, 12:14:31.440,0,0,0,0,0,0,0,0,0,
22.07249, 12:14:31.475,0,0,0,0,0,0,0,0,0,
22.10841, 12:14:31.512,0,0,0,0,0,0,0,0,0,
22.14308, 12:14:31.546,0,0,0,0,0,0,0,0,0,
22.17668, 12:14:31.579,0,0,0,0,0,0,0,0,0,
22.21202, 12:14:31.615,0,0,0,0,0,0,0,0,0,
22.24903, 12:14:31.653,0,0,0,0,0,0,0,0,0,
22.28535, 12:14:31.688,0,0,0,0,0,0,0,0,0,
22.33891, 12:14:31.741,0,0,0,0,0,0,0,0,0,
22.37315, 12:14:31.775,0,0,0,0,0,0,0,0,0,
22.41331, 12:14:31.816,0,0,0,0,0,0,0,0,0,
22.45893, 12:14:31.863,0,0,0,0,0,0,0,0,0,
22.50144, 12:14:31.905,0,0,0,0,0,0,0,0,0,
22.53837, 12:14:31.941,0,0,0,0,0,0,0,0,0,
22.57305, 12:14:31.976,0,0,0,0,0,0,0,0,0,
22.60836, 12:14:32.009,0,0,0,0,0,0,0,0,0,
22.64026, 12:14:32.043,0,0,0,0,0,0,0,0,0,
22.67701, 12:14:32.078,0,0,0,0,0,0,0,0,0,
22.71507, 12:14:32.118,0,0,0,0,0,0,0,0,0,
22.75104, 12:14:32.154,0,0,0,0,0,0,0,0,0,
22.78618, 12:14:32.189,0,0,0,0,0,0,0,0,0,
22.82028, 12:14:32.223,0,0,0,0,0,0,0,0,0,
22.85162, 12:14:32.253,0,0,0,0,0,0,0,0,0,
22.88806, 12:14:32.290,0,0,0,0,0,0,0,0,0,
22.93003, 12:14:32.332,0,0,0,0,0,0,0,0,0,
22.96592, 12:14:32.369,0,0,0,0,0,0,0,0,0,
22.99712, 12:14:32.398,0,0,0,0,0,0,0,0,0,
23.0295, 12:14:32.432,0,0,0,0,0,0,0,0,0,
23.06213, 12:14:32.464,0,0,0,0,0,0,0,0,0,
23.10128, 12:14:32.503,0,0,0,0,0,0,0,0,0,
23.14079, 12:14:32.544,0,0,0,0,0,0,0,0,0,
23.17303, 12:14:32.575,0,0,0,0,0,0,0,0,0,
23.20351, 12:14:32.607,0,0,0,0,0,0,0,0,0,
23.23585, 12:14:32.637,0,0,0,0,0,0,0,0,0,
23.27016, 12:14:32.673,0,0,0,0,0,0,0,0,0,
23.3075, 12:14:32.709,0,0,0,0,0,0,0,0,0,
23.33982, 12:14:32.741,0,0,0,0,0,0,0,0,0,
23.37308, 12:14:32.776,0,0,0,0,0,0,0,0,0,
23.40819, 12:14:32.811,0,0,0,0,0,0,0,0,0,
23.44531, 12:14:32.847,0,0,0,0,0,0,0,0,0,
23.48001, 12:14:32.881,0,0,0,0,0,0,0,0,0,
23.51288, 12:14:32.915,0,0,0,0,0,0,0,0,0,
23.54509, 12:14:32.948,0,0,0,0,0,0,0,0,0,
23.5814, 12:14:32.986,0,0,0,0,0,0,0,0,0,
23.62418, 12:14:33.030,0,0,0,0,0,0,0,0,0,
23.67003, 12:14:33.074,0,0,0,0,0,0,0,0,0,
23.70601, 12:14:33.108,0,0,0,0,0,0,0,0,0,
23.74153, 12:14:33.143,0,0,0,0,0,0,0,0,0,
23.77547, 12:14:33.177,0,0,0,0,0,0,0,0,0,
23.80945, 12:14:33.212,0,0,0,0,0,0,0,0,0,
23.84827, 12:14:33.251,0,0,0,0,0,0,0,0,0,
23.8798, 12:14:33.281,0,0,0,0,0,0,0,0,0,
23.91166, 12:14:33.315,0,0,0,0,0,0,0,0,0,
23.94955, 12:14:33.352,0,0,0,0,0,0,0,0,0,
23.98414, 12:14:33.387,0,0,0,0,0,0,0,0,0,
24.01539, 12:14:33.417,0,0,0,0,0,0,0,0,0,
24.048, 12:14:33.450,0,0,0,0,0,0,0,0,0,
24.08141, 12:14:33.484,0,0,0,0,0,0,0,0,0,
24.11634, 12:14:33.517,0,0,0,0,0,0,0,0,0,
24.15637, 12:14:33.558,0,0,0,0,0,0,0,0,0,
24.19381, 12:14:33.596,0,0,0,0,0,0,0,0,0,
24.2262, 12:14:33.629,0,0,0,0,0,0,0,0,0,
24.25889, 12:14:33.660,0,0,0,0,0,0,0,0,0,
24.29166, 12:14:33.695,0,0,0,0,0,0,0,0,0,
24.3277, 12:14:33.731,0,0,0,0,0,0,0,0,0,
24.3661, 12:14:33.769,0,0,0,0,0,0,0,0,0,
24.40006, 12:14:33.803,0,0,0,0,0,0,0,0,0,
24.43505, 12:14:33.837,0,0,0,0,0,0,0,0,0,
24.47107, 12:14:33.874,0,0,0,0,0,0,0,0,0,
24.50814, 12:14:33.911,0,0,0,0,0,0,0,0,0,
24.54039, 12:14:33.944,0,0,0,0,0,0,0,0,0,
24.57731, 12:14:33.979,0,0,0,0,0,0,0,0,0,
24.61006, 12:14:34.013,0,0,0,0,0,0,0,0,0,
24.64627, 12:14:34.049,0,0,0,0,0,0,0,0,0,
24.68261, 12:14:34.085,0,0,0,0,0,0,0,0,0,
24.72055, 12:14:34.125,0,0,0,0,0,0,0,0,0,
24.7602, 12:14:34.165,0,0,0,0,0,0,0,0,0,
24.81251, 12:14:34.216,0,0,0,0,0,0,0,0,0,
24.85092, 12:14:34.253,0,0,0,0,0,0,0,0,0,
24.88372, 12:14:34.286,0,0,0,0,0,0,0,0,0,
24.91677, 12:14:34.317,0,0,0,0,0,0,0,0,0,
24.95955, 12:14:34.363,0,0,0,0,0,0,0,0,0,
24.99895, 12:14:34.402,0,0,0,0,0,0,0,0,0,
25.03672, 12:14:34.439,0,0,0,0,0,0,0,0,0,
25.0682, 12:14:34.471,0,0,0,0,0,0,0,0,0,
25.10254, 12:14:34.505,0,0,0,0,0,0,0,0,0,
25.13676, 12:14:34.538,0,0,0,0,0,0,0,0,0,
25.16766, 12:14:34.570,0,0,0,0,0,0,0,0,0,
25.20088, 12:14:34.603,0,0,0,0,0,0,0,0,0,
25.23431, 12:14:34.636,0,0,0,0,0,0,0,0,0,
25.26981, 12:14:34.673,0,0,0,0,0,0,0,0,0,
25.30415, 12:14:34.707,0,0,0,0,0,0,0,0,0,
25.33543, 12:14:34.737,0,0,0,0,0,0,0,0,0,
25.36846, 12:14:34.772,0,0,0,0,0,0,0,0,0,
25.40164, 12:14:34.804,0,0,0,0,0,0,0,0,0,
25.43881, 12:14:34.839,0,0,0,0,0,0,0,0,0,
25.47195, 12:14:34.874,0,0,0,0,0,0,0,0,0,
25.50453, 12:14:34.907,0,0,0,0,0,0,0,0,0,
25.53709, 12:14:34.938,0,0,0,0,0,0,0,0,0,
25.56973, 12:14:34.973,0,0,0,0,0,0,0,0,0,
25.60876, 12:14:35.012,0,0,0,0,0,0,0,0,0,
25.64629, 12:14:35.049,0,0,0,0,0,0,0,0,0,
25.6778, 12:14:35.079,0,0,0,0,0,0,0,0,0,
25.70784, 12:14:35.111,0,0,0,0,0,0,0,0,0,
25.73933, 12:14:35.141,0,0,0,0,0,0,0,0,0,
25.77626, 12:14:35.178,0,0,0,0,0,0,0,0,0,
25.81263, 12:14:35.214,0,0,0,0,0,0,0,0,0,
25.84481, 12:14:35.248,0,0,0,0,0,0,0,0,0,
25.87994, 12:14:35.282,0,0,0,0,0,0,0,0,0,
25.91733, 12:14:35.320,0,0,0,0,0,0,0,0,0,
25.96395, 12:14:35.369,0,0,0,0,0,0,0,0,0,
26.00887, 12:14:35.412,0,0,0,0,0,0,0,0,0,
26.04296, 12:14:35.446,0,0,0,0,0,0,0,0,0,
26.07769, 12:14:35.479,0,0,0,0,0,0,0,0,0,
26.11303, 12:14:35.516,0,0,0,0,0,0,0,0,0,
26.1497, 12:14:35.552,0,0,0,0,0,0,0,0,0,
26.18332, 12:14:35.587,0,0,0,0,0,0,0,0,0,
26.21788, 12:14:35.619,0,0,0,0,0,0,0,0,0,
26.24908, 12:14:35.652,0,0,0,0,0,0,0,0,0,
26.28666, 12:14:35.689,0,0,0,0,0,0,0,0,0,
26.32267, 12:14:35.725,0,0,0,0,0,0,0,0,0,
26.35482, 12:14:35.758,0,0,0,0,0,0,0,0,0,
26.38895, 12:14:35.791,0,0,0,0,0,0,0,0,0,
26.42211, 12:14:35.825,0,0,0,0,0,0,0,0,0,
26.45908, 12:14:35.860,0,0,0,0,0,0,0,0,0,
26.49961, 12:14:35.902,0,0,0,0,0,0,0,0,0,
26.53207, 12:14:35.935,0,0,0,0,0,0,0,0,0,
26.5649, 12:14:35.967,0,0,0,0,0,0,0,0,0,
26.59687, 12:14:35.998,0,0,0,0,0,0,0,0,0,
26.63194, 12:14:36.034,0,0,0,0,0,0,0,0,0,
26.66718, 12:14:36.069,0,0,0,0,0,0,0,0,0,
26.70732, 12:14:36.110,0,0,0,0,0,0,0,0,0,
26.73929, 12:14:36.141,0,0,0,0,0,0,0,0,0,
26.7711, 12:14:36.173,0,0,0,0,0,0,0,0,0,
26.80943, 12:14:36.211,0,0,0,0,0,0,0,0,0,
26.84393, 12:14:36.246,0,0,0,0,0,0,0,0,0,
26.87532, 12:14:36.277,0,0,0,0,0,0,0,0,0,
26.90876, 12:14:36.311,0,0,0,0,0,0,0,0,0,
26.94173, 12:14:36.344,0,0,0,0,0,0,0,0,0,
26.97834, 12:14:36.380,0,0,0,0,0,0,0,0,0,
27.01336, 12:14:36.416,0,0,0,0,0,0,0,0,0,
27.04599, 12:14:36.450,0,0,0,0,0,0,0,0,0,
27.08545, 12:14:36.489,0,0,0,0,0,0,0,0,0,
27.13179, 12:14:36.535,0,0,0,0,0,0,0,0,0,
27.1706, 12:14:36.574,0,0,0,0,0,0,0,0,0,
27.2087, 12:14:36.611,0,0,0,0,0,0,0,0,0,
27.24079, 12:14:36.643,0,0,0,0,0,0,0,0,0,
27.27275, 12:14:36.675,0,0,0,0,0,0,0,0,0,
27.3116, 12:14:36.715,0,0,0,0,0,0,0,0,0,
27.35196, 12:14:36.755,0,0,0,0,0,0,0,0,0,
27.3906, 12:14:36.793,0,0,0,0,0,0,0,0,0,
27.425, 12:14:36.828,0,0,0,0,0,0,0,0,0,
27.4597, 12:14:36.861,0,0,0,0,0,0,0,0,0,
27.49207, 12:14:36.895,0,0,0,0,0,0,0,0,0,
27.52863, 12:14:36.930,0,0,0,0,0,0,0,0,0,
27.56688, 12:14:36.969,0,0,0,0,0,0,0,0,0,
27.59965, 12:14:37.001,0,0,0,0,0,0,0,0,0,
27.63015, 12:14:37.033,0,0,0,0,0,0,0,0,0,
27.66152, 12:14:37.064,0,0,0,0,0,0,0,0,0,
27.6959, 12:14:37.098,0,0,0,0,0,0,0,0,0,
27.73046, 12:14:37.133,0,0,0,0,0,0,0,0,0,
27.76448, 12:14:37.167,0,0,0,0,0,0,0,0,0,
27.79712, 12:14:37.199,0,0,0,0,0,0,0,0,0,
27.82895, 12:14:37.232,0,0,0,0,0,0,0,0,0,
27.86454, 12:14:37.267,0,0,0,0,0,0,0,0,0,
27.90333, 12:14:37.307,0,0,0,0,0,0,0,0,0,
27.93546, 12:14:37.337,0,0,0,0,0,0,0,0,0,
27.97, 12:14:37.372,0,0,0,0,0,0,0,0,0,
28.0036, 12:14:37.406,0,0,0,0,0,0,0,0,0,
28.04002, 12:14:37.442,0,0,0,0,0,0,0,0,0,
28.07588, 12:14:37.477,0,0,0,0,0,0,0,0,0,
28.10714, 12:14:37.510,0,0,0,0,0,0,0,0,0,
28.13895, 12:14:37.541,0,0,0,0,0,0,0,0,0,
28.17186, 12:14:37.575,0,0,0,0,0,0,0,0,0,
28.20946, 12:14:37.614,0,0,0,0,0,0,0,0,0,
28.25798, 12:14:37.661,0,0,0,0,0,0,0,0,0,
28.30231, 12:14:37.707,0,0,0,0,0,0,0,0,0,
28.33974, 12:14:37.742,0,0,0,0,0,0,0,0,0,
28.38141, 12:14:37.786,0,0,0,0,0,0,0,0,0,
28.41654, 12:14:37.818,0,0,0,0,0,0,0,0,0,
28.44711, 12:14:37.848,0,0,0,0,0,0,0,0,0,
28.4803, 12:14:37.882,0,0,0,0,0,0,0,0,0,
28.51615, 12:14:37.918,0,0,0,0,0,0,0,0,0,
28.5505, 12:14:37.953,0,0,0,0,0,0,0,0,0,
28.58719, 12:14:37.989,0,0,0,0,0,0,0,0,0,
28.61801, 12:14:38.019,0,0,0,0,0,0,0,0,0,
28.64945, 12:14:38.052,0,0,0,0,0,0,0,0,0,
28.68151, 12:14:38.091,0,0,0,0,0,0,0,0,0,
28.72359, 12:14:38.127,0,0,0,0,0,0,0,0,0,
28.75787, 12:14:38.160,0,0,0,0,0,0,0,0,0,
28.79241, 12:14:38.195,0,0,0,0,0,0,0,0,0,
28.82498, 12:14:38.227,0,0,0,0,0,0,0,0,0,
28.85809, 12:14:38.259,0,0,0,0,0,0,0,0,0,
28.89125, 12:14:38.294,0,0,0,0,0,0,0,0,0,
28.92578, 12:14:38.327,0,0,0,0,0,0,0,0,0,
28.95755, 12:14:38.359,0,0,0,0,0,0,0,0,0,
28.98876, 12:14:38.391,0,0,0,0,0,0,0,0,0,
29.02366, 12:14:38.426,0,0,0,0,0,0,0,0,0,
29.06103, 12:14:38.463,0,0,0,0,0,0,0,0,0,
29.09481, 12:14:38.496,0,0,0,0,0,0,0,0,0,
29.12702, 12:14:38.529,0,0,0,0,0,0,0,0,0,
29.15951, 12:14:38.561,0,0,0,0,0,0,0,0,0,
29.19357, 12:14:38.596,0,0,0,0,0,0,0,0,0,
29.23732, 12:14:38.640,0,0,0,0,0,0,0,0,0,
29.27238, 12:14:38.674,0,0,0,0,0,0,0,0,0,
29.30419, 12:14:38.706,0,0,0,0,0,0,0,0,0,
29.33736, 12:14:38.739,0,0,0,0,0,0,0,0,0,
29.37282, 12:14:38.777,0,0,0,0,0,0,0,0,0,
29.4165, 12:14:38.820,0,0,0,0,0,0,0,0,0,
29.46601, 12:14:38.870,0,0,0,0,0,0,0,0,0,
29.50376, 12:14:38.906,0,0,0,0,0,0,0,0,0,
29.54071, 12:14:38.943,0,0,0,0,0,0,0,0,0,
29.577, 12:14:38.979,0,0,0,0,0,0,0,0,0,
29.61315, 12:14:39.015,0,0,0,0,0,0,0,0,0,
29.64408, 12:14:39.048,0,0,0,0,0,0,0,0,0,
29.68092, 12:14:39.085,0,0,0,0,0,0,0,0,0,
29.71543, 12:14:39.117,0,0,0,0,0,0,0,0,0,
29.74919, 12:14:39.151,0,0,0,0,0,0,0,0,0,
29.78432, 12:14:39.186,0,0,0,0,0,0,0,0,0,
29.81754, 12:14:39.219,0,0,0,0,0,0,0,0,0,
29.8499, 12:14:39.253,0,0,0,0,0,0,0,0,0,
29.88485, 12:14:39.287,0,0,0,0,0,0,0,0,0,
29.92044, 12:14:39.323,0,0,0,0,0,0,0,0,0,
29.95533, 12:14:39.357,0,0,0,0,0,0,0,0,0,
29.99101, 12:14:39.393,0,0,0,0,0,0,0,0,0,
30.02645, 12:14:39.431,0,0,0,0,0,0,0,0,0,
30.06194, 12:14:39.466,0,0,0,0,0,0,0,0,0,
30.1021, 12:14:39.504,0,0,0,0,0,0,0,0,0,
30.14042, 12:14:39.542,0,0,0,0,0,0,0,0,0,
30.17386, 12:14:39.577,0,0,0,0,0,0,0,0,0,
30.21309, 12:14:39.616,0,0,0,0,0,0,0,0,0,
30.25221, 12:14:39.655,0,0,0,0,0,0,0,0,0,
30.28853, 12:14:39.692,0,0,0,0,0,0,0,0,0,
30.32235, 12:14:39.725,0,0,0,0,0,0,0,0,0,
30.35636, 12:14:39.759,0,0,0,0,0,0,0,0,0,
30.38997, 12:14:39.792,0,0,0,0,0,0,0,0,0,
30.42669, 12:14:39.828,0,0,0,0,0,0,0,0,0,
30.4609, 12:14:39.863,0,0,0,0,0,0,0,0,0,
30.49421, 12:14:39.895,0,0,0,0,0,0,0,0,0,
30.52636, 12:14:39.928,0,0,0,0,0,0,0,0,0,
30.56634, 12:14:39.970,0,0,0,0,0,0,0,0,0,
30.61208, 12:14:40.016,0,0,0,0,0,0,0,0,0,
30.66012, 12:14:40.065,0,0,0,0,0,0,0,0,0,
30.69683, 12:14:40.099,0,0,0,0,0,0,0,0,0,
30.72913, 12:14:40.132,0,0,0,0,0,0,0,0,0,
30.76427, 12:14:40.166,0,0,0,0,0,0,0,0,0,
30.79926, 12:14:40.201,0,0,0,0,0,0,0,0,0,
30.83157, 12:14:40.234,0,0,0,0,0,0,0,0,0,
30.86339, 12:14:40.266,0,0,0,0,0,0,0,0,0,
30.8959, 12:14:40.297,0,0,0,0,0,0,0,0,0,
30.9296, 12:14:40.332,0,0,0,0,0,0,0,0,0,
30.96733, 12:14:40.369,0,0,0,0,0,0,0,0,0,
31.00319, 12:14:40.405,0,0,0,0,0,0,0,0,0,
31.03421, 12:14:40.436,0,0,0,0,0,0,0,0,0,
31.07725, 12:14:40.480,0,0,0,0,0,0,0,0,0,
31.11105, 12:14:40.515,0,0,0,0,0,0,0,0,0,
31.14679, 12:14:40.549,0,0,0,0,0,0,0,0,0,
31.18333, 12:14:40.586,0,0,0,0,0,0,0,0,0,
31.21851, 12:14:40.621,0,0,0,0,0,0,0,0,0,
31.25071, 12:14:40.652,0,0,0,0,0,0,0,0,0,
31.28497, 12:14:40.688,0,0,0,0,0,0,0,0,0,
31.32086, 12:14:40.722,0,0,0,0,0,0,0,0,0,
31.35253, 12:14:40.755,0,0,0,0,0,0,0,0,0,
31.39106, 12:14:40.794,0,0,0,0,0,0,0,0,0,
31.42513, 12:14:40.827,0,0,0,0,0,0,0,0,0,
31.46037, 12:14:40.863,0,0,0,0,0,0,0,0,0,
31.49604, 12:14:40.897,0,0,0,0,0,0,0,0,0,
31.52665, 12:14:40.929,0,0,0,0,0,0,0,0,0,
31.59318, 12:14:40.996,0,0,0,0,0,0,0,0,0,
31.65567, 12:14:41.058,0,0,0,0,0,0,0,0,0,
Elapsed_Time, System_Time, Euler_Roll, Euler_Pitch, Euler_Yaw, Gyro_Roll, Gyro_Pitch, Gyro_Yaw, Accel_x, Accel_y, Accel_z
0.02, 13:18:40.907,0,0,0,0,0,0,0,0,0,
0.04, 13:18:41.036,0,0,0,0,0,0,0,0,0,
0.3733333, 13:18:41.661,0,0,0,0,0,0,0,0,0,
0.5238488, 13:18:41.805,0,0,0,0,0,0,0,0,0,
0.6187443, 13:18:41.893,0,0,0,0,0,0,0,0,0,
0.6599535, 13:18:41.932,0,0,0,0,0,0,0,0,0,
0.7265728, 13:18:42.000,0,0,0,0,0,0,0,0,0,
0.7781109, 13:18:42.051,0,0,0,0,0,0,0,0,0,
0.8157263, 13:18:42.087,0,0,0,0,0,0,0,0,0,
0.8549083, 13:18:42.127,0,0,0,0,0,0,0,0,0,
0.8923624, 13:18:42.165,0,0,0,0,0,0,0,0,0,
0.9482141, 13:18:42.224,0,0,0,0,0,0,0,0,0,
1.011246, 13:18:42.285,0,0,0,0,0,0,0,0,0,
1.051783, 13:18:42.324,0,0,0,0,0,0,0,0,0,
1.091287, 13:18:42.364,0,0,0,0,0,0,0,0,0,
1.133606, 13:18:42.411,0,0,0,0,0,0,0,0,0,
1.17035, 13:18:42.443,0,0,0,0,0,0,0,0,0,
1.209768, 13:18:42.482,0,0,0,0,0,0,0,0,0,
1.250223, 13:18:42.522,0,0,0,0,0,0,0,0,0,
1.285698, 13:18:42.557,0,0,0,0,0,0,0,0,0,
1.314269, 13:18:42.585,0,0,0,0,0,0,0,0,0,
1.349856, 13:18:42.621,0,0,0,0,0,0,0,0,0,
1.380067, 13:18:42.652,0,0,0,0,0,0,0,0,0,
1.427423, 13:18:42.700,0,0,0,0,0,0,0,0,0,
1.46155, 13:18:42.735,0,0,0,0,0,0,0,0,0,
1.494189, 13:18:42.766,0,0,0,0,0,0,0,0,0,
1.827523, 13:18:43.205,0,0,0,0,0,0,0,0,0,
1.88896, 13:18:43.253,0,0,0,0,0,0,0,0,0,
1.924349, 13:18:43.359,0,0,0,0,0,0,0,0,0,
2.036714, 13:18:43.404,0,0,0,0,0,0,0,0,0,
2.132899, 13:18:43.500,0,0,0,0,0,0,0,0,0,
2.307038, 13:18:43.678,0,0,0,0,0,0,0,0,0,
2.359525, 13:18:43.723,0,0,0,0,0,0,0,0,0,
2.395757, 13:18:43.759,0,0,0,0,0,0,0,0,0,
2.429452, 13:18:43.793,0,0,0,0,0,0,0,0,0,
2.461644, 13:18:43.825,0,0,0,0,0,0,0,0,0,
2.504092, 13:18:43.867,0,0,0,0,0,0,0,0,0,
2.540062, 13:18:43.904,0,0,0,0,0,0,0,0,0,
2.575199, 13:18:43.938,0,0,0,0,0,0,0,0,0,
2.607225, 13:18:43.970,0,0,0,0,0,0,0,0,0,
2.64095, 13:18:44.003,0,0,0,0,0,0,0,0,0,
2.682404, 13:18:44.045,0,0,0,0,0,0,0,0,0,
2.716781, 13:18:44.079,0,0,0,0,0,0,0,0,0,
2.749422, 13:18:44.112,0,0,0,0,0,0,0,0,0,
2.783159, 13:18:44.146,0,0,0,0,0,0,0,0,0,
2.815135, 13:18:44.177,0,0,0,0,0,0,0,0,0,
2.854553, 13:18:44.218,0,0,0,0,0,0,0,0,0,
2.891744, 13:18:44.256,0,0,0,0,0,0,0,0,0,
2.923048, 13:18:44.286,0,0,0,0,0,0,0,0,0,
2.953377, 13:18:44.316,0,0,0,0,0,0,0,0,0,
2.986714, 13:18:44.349,0,0,0,0,0,0,0,0,0,
3.030531, 13:18:44.393,0,0,0,0,0,0,0,0,0,
3.078006, 13:18:44.440,0,0,0,0,0,0,0,0,0,
3.110839, 13:18:44.475,0,0,0,0,0,0,0,0,0,
3.147884, 13:18:44.512,0,0,0,0,0,0,0,0,0,
3.203557, 13:18:44.569,0,0,0,0,0,0,0,0,0,
3.247927, 13:18:44.611,0,0,0,0,0,0,0,0,0,
3.281667, 13:18:44.644,0,0,0,0,0,0,0,0,0,
3.314898, 13:18:44.677,0,0,0,0,0,0,0,0,0,
3.356335, 13:18:44.718,0,0,0,0,0,0,0,0,0,
3.391085, 13:18:44.753,0,0,0,0,0,0,0,0,0,
3.421435, 13:18:44.784,0,0,0,0,0,0,0,0,0,
3.45528, 13:18:44.817,0,0,0,0,0,0,0,0,0,
3.484897, 13:18:44.847,0,0,0,0,0,0,0,0,0,
3.527042, 13:18:44.890,0,0,0,0,0,0,0,0,0,
3.561077, 13:18:44.924,0,0,0,0,0,0,0,0,0,
3.591191, 13:18:44.954,0,0,0,0,0,0,0,0,0,
3.621094, 13:18:44.984,0,0,0,0,0,0,0,0,0,
3.650721, 13:18:45.012,0,0,0,0,0,0,0,0,0,
3.693495, 13:18:45.056,0,0,0,0,0,0,0,0,0,
3.728351, 13:18:45.091,0,0,0,0,0,0,0,0,0,
3.759951, 13:18:45.122,0,0,0,0,0,0,0,0,0,
3.789623, 13:18:45.153,0,0,0,0,0,0,0,0,0,
3.823941, 13:18:45.187,0,0,0,0,0,0,0,0,0,
3.86617, 13:18:45.228,0,0,0,0,0,0,0,0,0,
3.905551, 13:18:45.267,0,0,0,0,0,0,0,0,0,
3.93688, 13:18:45.298,0,0,0,0,0,0,0,0,0,
3.966964, 13:18:45.330,0,0,0,0,0,0,0,0,0,
3.998973, 13:18:45.361,0,0,0,0,0,0,0,0,0,
4.042343, 13:18:45.406,0,0,0,0,0,0,0,0,0,
4.076552, 13:18:45.438,0,0,0,0,0,0,0,0,0,
4.110138, 13:18:45.473,0,0,0,0,0,0,0,0,0,
4.141722, 13:18:45.504,0,0,0,0,0,0,0,0,0,
4.173442, 13:18:45.536,0,0,0,0,0,0,0,0,0,
4.212761, 13:18:45.576,0,0,0,0,0,0,0,0,0,
4.247066, 13:18:45.609,0,0,0,0,0,0,0,0,0,
4.279035, 13:18:45.640,0,0,0,0,0,0,0,0,0,
4.31875, 13:18:45.682,0,0,0,0,0,0,0,0,0,
4.356316, 13:18:45.720,0,0,0,0,0,0,0,0,0,
4.408685, 13:18:45.773,0,0,0,0,0,0,0,0,0,
4.445964, 13:18:45.809,0,0,0,0,0,0,0,0,0,
4.476994, 13:18:45.839,0,0,0,0,0,0,0,0,0,
4.507273, 13:18:45.870,0,0,0,0,0,0,0,0,0,
4.550588, 13:18:45.914,0,0,0,0,0,0,0,0,0,
4.58414, 13:18:45.947,0,0,0,0,0,0,0,0,0,
4.613939, 13:18:45.975,0,0,0,0,0,0,0,0,0,
4.644337, 13:18:46.007,0,0,0,0,0,0,0,0,0,
4.676665, 13:18:46.038,0,0,0,0,0,0,0,0,0,
4.717636, 13:18:46.080,0,0,0,0,0,0,0,0,0,
4.755789, 13:18:46.118,0,0,0,0,0,0,0,0,0,
4.786637, 13:18:46.149,0,0,0,0,0,0,0,0,0,
4.818647, 13:18:46.180,0,0,0,0,0,0,0,0,0,
4.847962, 13:18:46.211,0,0,0,0,0,0,0,0,0,
4.890707, 13:18:46.254,0,0,0,0,0,0,0,0,0,
4.924331, 13:18:46.288,0,0,0,0,0,0,0,0,0,
4.9589, 13:18:46.321,0,0,0,0,0,0,0,0,0,
4.98979, 13:18:46.353,0,0,0,0,0,0,0,0,0,
5.02577, 13:18:46.389,0,0,0,0,0,0,0,0,0,
5.068079, 13:18:46.432,0,0,0,0,0,0,0,0,0,
5.111188, 13:18:46.474,0,0,0,0,0,0,0,0,0,
5.148347, 13:18:46.512,0,0,0,0,0,0,0,0,0,
5.186143, 13:18:46.549,0,0,0,0,0,0,0,0,0,
5.235868, 13:18:46.599,0,0,0,0,0,0,0,0,0,
5.279898, 13:18:46.643,0,0,0,0,0,0,0,0,0,
5.336689, 13:18:46.699,0,0,0,0,0,0,0,0,0,
5.393959, 13:18:46.758,0,0,0,0,0,0,0,0,0,
5.444882, 13:18:46.809,0,0,0,0,0,0,0,0,0,
5.482262, 13:18:46.845,0,0,0,0,0,0,0,0,0,
5.52281, 13:18:46.886,0,0,0,0,0,0,0,0,0,
5.567862, 13:18:46.931,0,0,0,0,0,0,0,0,0,
5.603976, 13:18:46.967,0,0,0,0,0,0,0,0,0,
5.639116, 13:18:47.001,0,0,0,0,0,0,0,0,0,
5.67086, 13:18:47.034,0,0,0,0,0,0,0,0,0,
5.703094, 13:18:47.066,0,0,0,0,0,0,0,0,0,
5.746159, 13:18:47.108,0,0,0,0,0,0,0,0,0,
5.78222, 13:18:47.144,0,0,0,0,0,0,0,0,0,
5.813095, 13:18:47.175,0,0,0,0,0,0,0,0,0,
5.849011, 13:18:47.212,0,0,0,0,0,0,0,0,0,
5.881712, 13:18:47.245,0,0,0,0,0,0,0,0,0,
5.924127, 13:18:47.287,0,0,0,0,0,0,0,0,0,
5.95935, 13:18:47.321,0,0,0,0,0,0,0,0,0,
5.990334, 13:18:47.353,0,0,0,0,0,0,0,0,0,
6.024845, 13:18:47.388,0,0,0,0,0,0,0,0,0,
6.061166, 13:18:47.424,0,0,0,0,0,0,0,0,0,
6.10314, 13:18:47.465,0,0,0,0,0,0,0,0,0,
6.138423, 13:18:47.500,0,0,0,0,0,0,0,0,0,
6.170168, 13:18:47.534,0,0,0,0,0,0,0,0,0,
6.202137, 13:18:47.565,0,0,0,0,0,0,0,0,0,
6.232424, 13:18:47.594,0,0,0,0,0,0,0,0,0,
6.275594, 13:18:47.639,0,0,0,0,0,0,0,0,0,
6.310055, 13:18:47.672,0,0,0,0,0,0,0,0,0,
6.340687, 13:18:47.703,0,0,0,0,0,0,0,0,0,
6.371478, 13:18:47.734,0,0,0,0,0,0,0,0,0,
6.402039, 13:18:47.764,0,0,0,0,0,0,0,0,0,
6.442818, 13:18:47.805,0,0,0,0,0,0,0,0,0,
6.479038, 13:18:47.841,0,0,0,0,0,0,0,0,0,
6.50999, 13:18:47.873,0,0,0,0,0,0,0,0,0,
6.54006, 13:18:47.904,0,0,0,0,0,0,0,0,0,
6.571001, 13:18:47.933,0,0,0,0,0,0,0,0,0,
6.618295, 13:18:47.982,0,0,0,0,0,0,0,0,0,
6.657732, 13:18:48.022,0,0,0,0,0,0,0,0,0,
6.705668, 13:18:48.069,0,0,0,0,0,0,0,0,0,
6.745542, 13:18:48.109,0,0,0,0,0,0,0,0,0,
6.790675, 13:18:48.154,0,0,0,0,0,0,0,0,0,
6.829431, 13:18:48.192,0,0,0,0,0,0,0,0,0,
6.860878, 13:18:48.224,0,0,0,0,0,0,0,0,0,
6.896539, 13:18:48.258,0,0,0,0,0,0,0,0,0,
6.937571, 13:18:48.300,0,0,0,0,0,0,0,0,0,
6.974767, 13:18:48.337,0,0,0,0,0,0,0,0,0,
7.008707, 13:18:48.372,0,0,0,0,0,0,0,0,0,
7.043705, 13:18:48.406,0,0,0,0,0,0,0,0,0,
7.075527, 13:18:48.445,0,0,0,0,0,0,0,0,0,
7.127024, 13:18:48.491,0,0,0,0,0,0,0,0,0,
7.163726, 13:18:48.527,0,0,0,0,0,0,0,0,0,
7.197144, 13:18:48.560,0,0,0,0,0,0,0,0,0,
7.229734, 13:18:48.594,0,0,0,0,0,0,0,0,0,
7.272164, 13:18:48.635,0,0,0,0,0,0,0,0,0,
7.306093, 13:18:48.668,0,0,0,0,0,0,0,0,0,
7.340642, 13:18:48.703,0,0,0,0,0,0,0,0,0,
7.372527, 13:18:48.735,0,0,0,0,0,0,0,0,0,
7.402811, 13:18:48.766,0,0,0,0,0,0,0,0,0,
7.446694, 13:18:48.809,0,0,0,0,0,0,0,0,0,
7.4806, 13:18:48.844,0,0,0,0,0,0,0,0,0,
7.512621, 13:18:48.874,0,0,0,0,0,0,0,0,0,
7.546195, 13:18:48.909,0,0,0,0,0,0,0,0,0,
7.578252, 13:18:48.940,0,0,0,0,0,0,0,0,0,
7.618783, 13:18:48.981,0,0,0,0,0,0,0,0,0,
7.653903, 13:18:49.017,0,0,0,0,0,0,0,0,0,
7.685873, 13:18:49.049,0,0,0,0,0,0,0,0,0,
7.717399, 13:18:49.079,0,0,0,0,0,0,0,0,0,
7.752564, 13:18:49.116,0,0,0,0,0,0,0,0,0,
7.801769, 13:18:49.166,0,0,0,0,0,0,0,0,0,
7.850667, 13:18:49.214,0,0,0,0,0,0,0,0,0,
7.886118, 13:18:49.250,0,0,0,0,0,0,0,0,0,
7.92058, 13:18:49.284,0,0,0,0,0,0,0,0,0,
7.96481, 13:18:49.328,0,0,0,0,0,0,0,0,0,
7.998798, 13:18:49.361,0,0,0,0,0,0,0,0,0,
8.031024, 13:18:49.394,0,0,0,0,0,0,0,0,0,
8.062542, 13:18:49.425,0,0,0,0,0,0,0,0,0,
8.094642, 13:18:49.458,0,0,0,0,0,0,0,0,0,
8.136354, 13:18:49.499,0,0,0,0,0,0,0,0,0,
8.174362, 13:18:49.536,0,0,0,0,0,0,0,0,0,
8.206292, 13:18:49.569,0,0,0,0,0,0,0,0,0,
8.237824, 13:18:49.599,0,0,0,0,0,0,0,0,0,
8.27, 13:18:49.633,0,0,0,0,0,0,0,0,0,
8.31352, 13:18:49.676,0,0,0,0,0,0,0,0,0,
8.349361, 13:18:49.712,0,0,0,0,0,0,0,0,0,
8.385072, 13:18:49.748,0,0,0,0,0,0,0,0,0,
8.417437, 13:18:49.779,0,0,0,0,0,0,0,0,0,
8.44729, 13:18:49.810,0,0,0,0,0,0,0,0,0,
8.490296, 13:18:49.853,0,0,0,0,0,0,0,0,0,
8.526898, 13:18:49.891,0,0,0,0,0,0,0,0,0,
8.559963, 13:18:49.922,0,0,0,0,0,0,0,0,0,
8.593416, 13:18:49.956,0,0,0,0,0,0,0,0,0,
8.62597, 13:18:49.988,0,0,0,0,0,0,0,0,0,
8.671216, 13:18:50.034,0,0,0,0,0,0,0,0,0,
8.706595, 13:18:50.069,0,0,0,0,0,0,0,0,0,
8.739503, 13:18:50.102,0,0,0,0,0,0,0,0,0,
8.770835, 13:18:50.134,0,0,0,0,0,0,0,0,0,
8.806516, 13:18:50.170,0,0,0,0,0,0,0,0,0,
8.848473, 13:18:50.211,0,0,0,0,0,0,0,0,0,
8.88271, 13:18:50.246,0,0,0,0,0,0,0,0,0,
8.914434, 13:18:50.278,0,0,0,0,0,0,0,0,0,
8.948948, 13:18:50.314,0,0,0,0,0,0,0,0,0,
8.989893, 13:18:50.354,0,0,0,0,0,0,0,0,0,
9.050036, 13:18:50.414,0,0,0,0,0,0,0,0,0,
9.08693, 13:18:50.449,0,0,0,0,0,0,0,0,0,
9.116261, 13:18:50.478,0,0,0,0,0,0,0,0,0,
9.147269, 13:18:50.510,0,0,0,0,0,0,0,0,0,
9.187526, 13:18:50.550,0,0,0,0,0,0,0,0,0,
9.221758, 13:18:50.584,0,0,0,0,0,0,0,0,0,
9.256071, 13:18:50.618,0,0,0,0,0,0,0,0,0,
9.28663, 13:18:50.649,0,0,0,0,0,0,0,0,0,
9.31849, 13:18:50.680,0,0,0,0,0,0,0,0,0,
9.357934, 13:18:50.720,0,0,0,0,0,0,0,0,0,
9.394888, 13:18:50.757,0,0,0,0,0,0,0,0,0,
9.427083, 13:18:50.789,0,0,0,0,0,0,0,0,0,
9.46088, 13:18:50.824,0,0,0,0,0,0,0,0,0,
9.493748, 13:18:50.855,0,0,0,0,0,0,0,0,0,
9.535563, 13:18:50.898,0,0,0,0,0,0,0,0,0,
9.569609, 13:18:50.932,0,0,0,0,0,0,0,0,0,
9.601607, 13:18:50.964,0,0,0,0,0,0,0,0,0,
9.633615, 13:18:50.995,0,0,0,0,0,0,0,0,0,
9.666897, 13:18:51.030,0,0,0,0,0,0,0,0,0,
9.710134, 13:18:51.073,0,0,0,0,0,0,0,0,0,
9.745941, 13:18:51.108,0,0,0,0,0,0,0,0,0,
9.776343, 13:18:51.138,0,0,0,0,0,0,0,0,0,
9.807945, 13:18:51.171,0,0,0,0,0,0,0,0,0,
9.83915, 13:18:51.201,0,0,0,0,0,0,0,0,0,
9.883151, 13:18:51.247,0,0,0,0,0,0,0,0,0,
9.919018, 13:18:51.281,0,0,0,0,0,0,0,0,0,
9.948682, 13:18:51.311,0,0,0,0,0,0,0,0,0,
9.980177, 13:18:51.343,0,0,0,0,0,0,0,0,0,
10.0119, 13:18:51.375,0,0,0,0,0,0,0,0,0,
10.05394, 13:18:51.416,0,0,0,0,0,0,0,0,0,
10.09627, 13:18:51.460,0,0,0,0,0,0,0,0,0,
10.13254, 13:18:51.496,0,0,0,0,0,0,0,0,0,
10.17542, 13:18:51.539,0,0,0,0,0,0,0,0,0,
10.22004, 13:18:51.584,0,0,0,0,0,0,0,0,0,
10.25612, 13:18:51.618,0,0,0,0,0,0,0,0,0,
10.29125, 13:18:51.655,0,0,0,0,0,0,0,0,0,
10.32444, 13:18:51.687,0,0,0,0,0,0,0,0,0,
10.35771, 13:18:51.720,0,0,0,0,0,0,0,0,0,
10.3993, 13:18:51.762,0,0,0,0,0,0,0,0,0,
10.43442, 13:18:51.797,0,0,0,0,0,0,0,0,0,
10.46738, 13:18:51.830,0,0,0,0,0,0,0,0,0,
10.50263, 13:18:51.865,0,0,0,0,0,0,0,0,0,
10.53578, 13:18:51.897,0,0,0,0,0,0,0,0,0,
10.57866, 13:18:51.941,0,0,0,0,0,0,0,0,0,
10.61411, 13:18:51.977,0,0,0,0,0,0,0,0,0,
10.64684, 13:18:52.010,0,0,0,0,0,0,0,0,0,
10.68048, 13:18:52.044,0,0,0,0,0,0,0,0,0,
10.71609, 13:18:52.077,0,0,0,0,0,0,0,0,0,
10.75845, 13:18:52.120,0,0,0,0,0,0,0,0,0,
10.79302, 13:18:52.155,0,0,0,0,0,0,0,0,0,
10.82452, 13:18:52.187,0,0,0,0,0,0,0,0,0,
10.85734, 13:18:52.219,0,0,0,0,0,0,0,0,0,
10.88795, 13:18:52.251,0,0,0,0,0,0,0,0,0,
10.93285, 13:18:52.296,0,0,0,0,0,0,0,0,0,
10.9699, 13:18:52.333,0,0,0,0,0,0,0,0,0,
11.00276, 13:18:52.366,0,0,0,0,0,0,0,0,0,
11.03639, 13:18:52.398,0,0,0,0,0,0,0,0,0,
11.0684, 13:18:52.430,0,0,0,0,0,0,0,0,0,
11.11099, 13:18:52.473,0,0,0,0,0,0,0,0,0,
11.14794, 13:18:52.511,0,0,0,0,0,0,0,0,0,
11.18143, 13:18:52.544,0,0,0,0,0,0,0,0,0,
11.21358, 13:18:52.576,0,0,0,0,0,0,0,0,0,
11.25013, 13:18:52.615,0,0,0,0,0,0,0,0,0,
11.30909, 13:18:52.674,0,0,0,0,0,0,0,0,0,
11.35303, 13:18:52.716,0,0,0,0,0,0,0,0,0,
11.39018, 13:18:52.753,0,0,0,0,0,0,0,0,0,
11.42391, 13:18:52.787,0,0,0,0,0,0,0,0,0,
11.46837, 13:18:52.831,0,0,0,0,0,0,0,0,0,
11.50565, 13:18:52.868,0,0,0,0,0,0,0,0,0,
11.5382, 13:18:52.900,0,0,0,0,0,0,0,0,0,
11.5693, 13:18:52.932,0,0,0,0,0,0,0,0,0,
11.60537, 13:18:52.968,0,0,0,0,0,0,0,0,0,
11.64827, 13:18:53.011,0,0,0,0,0,0,0,0,0,
11.68352, 13:18:53.046,0,0,0,0,0,0,0,0,0,
11.71713, 13:18:53.078,0,0,0,0,0,0,0,0,0,
11.74897, 13:18:53.111,0,0,0,0,0,0,0,0,0,
11.78166, 13:18:53.144,0,0,0,0,0,0,0,0,0,
11.82655, 13:18:53.189,0,0,0,0,0,0,0,0,0,
11.86159, 13:18:53.224,0,0,0,0,0,0,0,0,0,
11.8942, 13:18:53.256,0,0,0,0,0,0,0,0,0,
11.92741, 13:18:53.290,0,0,0,0,0,0,0,0,0,
11.96046, 13:18:53.324,0,0,0,0,0,0,0,0,0,
12.00268, 13:18:53.366,0,0,0,0,0,0,0,0,0,
12.04267, 13:18:53.405,0,0,0,0,0,0,0,0,0,
12.0764, 13:18:53.437,0,0,0,0,0,0,0,0,0,
12.10886, 13:18:53.471,0,0,0,0,0,0,0,0,0,
12.14201, 13:18:53.504,0,0,0,0,0,0,0,0,0,
12.18498, 13:18:53.547,0,0,0,0,0,0,0,0,0,
12.22113, 13:18:53.584,0,0,0,0,0,0,0,0,0,
12.25633, 13:18:53.618,0,0,0,0,0,0,0,0,0,
12.28724, 13:18:53.650,0,0,0,0,0,0,0,0,0,
12.32047, 13:18:53.684,0,0,0,0,0,0,0,0,0,
12.36461, 13:18:53.728,0,0,0,0,0,0,0,0,0,
12.40426, 13:18:53.776,0,0,0,0,0,0,0,0,0,
12.45248, 13:18:53.817,0,0,0,0,0,0,0,0,0,
12.50206, 13:18:53.865,0,0,0,0,0,0,0,0,0,
12.54872, 13:18:53.911,0,0,0,0,0,0,0,0,0,
12.58406, 13:18:53.947,0,0,0,0,0,0,0,0,0,
12.61764, 13:18:53.979,0,0,0,0,0,0,0,0,0,
12.6508, 13:18:54.013,0,0,0,0,0,0,0,0,0,
12.68292, 13:18:54.046,0,0,0,0,0,0,0,0,0,
12.72975, 13:18:54.093,0,0,0,0,0,0,0,0,0,
12.76644, 13:18:54.130,0,0,0,0,0,0,0,0,0,
12.7998, 13:18:54.161,0,0,0,0,0,0,0,0,0,
12.83375, 13:18:54.197,0,0,0,0,0,0,0,0,0,
12.88602, 13:18:54.255,0,0,0,0,0,0,0,0,0,
12.94267, 13:18:54.307,0,0,0,0,0,0,0,0,0,
12.97737, 13:18:54.339,0,0,0,0,0,0,0,0,0,
13.15536, 13:18:54.528,0,0,0,0,0,0,0,0,0,
13.21502, 13:18:54.580,0,0,0,0,0,0,0,0,0,
13.25394, 13:18:54.617,0,0,0,0,0,0,0,0,0,
13.28877, 13:18:54.652,0,0,0,0,0,0,0,0,0,
13.32302, 13:18:54.686,0,0,0,0,0,0,0,0,0,
13.36845, 13:18:54.731,0,0,0,0,0,0,0,0,0,
13.40686, 13:18:54.770,0,0,0,0,0,0,0,0,0,
13.44331, 13:18:54.806,0,0,0,0,0,0,0,0,0,
13.47722, 13:18:54.839,0,0,0,0,0,0,0,0,0,
13.52714, 13:18:54.892,0,0,0,0,0,0,0,0,0,
13.56898, 13:18:54.932,0,0,0,0,0,0,0,0,0,
13.60886, 13:18:54.972,0,0,0,0,0,0,0,0,0,
13.64322, 13:18:55.007,0,0,0,0,0,0,0,0,0,
13.6957, 13:18:55.059,0,0,0,0,0,0,0,0,0,
13.74334, 13:18:55.109,0,0,0,0,0,0,0,0,0,
13.78686, 13:18:55.150,0,0,0,0,0,0,0,0,0,
13.82408, 13:18:55.186,0,0,0,0,0,0,0,0,0,
13.86512, 13:18:55.228,0,0,0,0,0,0,0,0,0,
13.90345, 13:18:55.267,0,0,0,0,0,0,0,0,0,
13.9367, 13:18:55.298,0,0,0,0,0,0,0,0,0,
13.969, 13:18:55.332,0,0,0,0,0,0,0,0,0,
14.0012, 13:18:55.365,0,0,0,0,0,0,0,0,0,
14.05156, 13:18:55.415,0,0,0,0,0,0,0,0,0,
14.09216, 13:18:55.456,0,0,0,0,0,0,0,0,0,
14.13039, 13:18:55.495,0,0,0,0,0,0,0,0,0,
14.16755, 13:18:55.531,0,0,0,0,0,0,0,0,0,
14.21148, 13:18:55.575,0,0,0,0,0,0,0,0,0,
14.25073, 13:18:55.614,0,0,0,0,0,0,0,0,0,
14.28473, 13:18:55.647,0,0,0,0,0,0,0,0,0,
14.31766, 13:18:55.680,0,0,0,0,0,0,0,0,0,
14.36113, 13:18:55.725,0,0,0,0,0,0,0,0,0,
14.40177, 13:18:55.765,0,0,0,0,0,0,0,0,0,
14.44134, 13:18:55.804,0,0,0,0,0,0,0,0,0,
14.47917, 13:18:55.841,0,0,0,0,0,0,0,0,0,
14.52505, 13:18:55.890,0,0,0,0,0,0,0,0,0,
14.56495, 13:18:55.929,0,0,0,0,0,0,0,0,0,
14.59857, 13:18:55.960,0,0,0,0,0,0,0,0,0,
14.63113, 13:18:55.994,0,0,0,0,0,0,0,0,0,
14.67442, 13:18:56.038,0,0,0,0,0,0,0,0,0,
14.71318, 13:18:56.076,0,0,0,0,0,0,0,0,0,
14.74783, 13:18:56.111,0,0,0,0,0,0,0,0,0,
14.78426, 13:18:56.148,0,0,0,0,0,0,0,0,0,
14.82955, 13:18:56.194,0,0,0,0,0,0,0,0,0,
14.87335, 13:18:56.237,0,0,0,0,0,0,0,0,0,
14.92092, 13:18:56.287,0,0,0,0,0,0,0,0,0,
14.96561, 13:18:56.330,0,0,0,0,0,0,0,0,0,
15.03222, 13:18:56.397,0,0,0,0,0,0,0,0,0,
15.06875, 13:18:56.431,0,0,0,0,0,0,0,0,0,
15.10095, 13:18:56.464,0,0,0,0,0,0,0,0,0,
15.1352, 13:18:56.497,0,0,0,0,0,0,0,0,0,
15.17986, 13:18:56.542,0,0,0,0,0,0,0,0,0,
15.21629, 13:18:56.579,0,0,0,0,0,0,0,0,0,
15.25134, 13:18:56.614,0,0,0,0,0,0,0,0,0,
15.28523, 13:18:56.649,0,0,0,0,0,0,0,0,0,
15.32991, 13:18:56.693,0,0,0,0,0,0,0,0,0,
15.43582, 13:18:56.802,0,0,0,0,0,0,0,0,0,
15.55435, 13:18:56.922,0,0,0,0,0,0,0,0,0,
15.66364, 13:18:57.031,0,0,0,0,0,0,0,0,0,
15.71419, 13:18:57.078,0,0,0,0,0,0,0,0,0,
15.79754, 13:18:57.164,0,0,0,0,0,0,0,0,0,
15.89323, 13:18:57.260,0,0,0,0,0,0,0,0,0,
16.00635, 13:18:57.375,0,0,0,0,0,0,0,0,0,
16.13745, 13:18:57.506,0,0,0,0,0,0,0,0,0,
16.26025, 13:18:57.628,0,0,0,0,0,0,0,0,0,
16.36249, 13:18:57.728,0,0,0,0,0,0,0,0,0,
16.47796, 13:18:57.845,0,0,0,0,0,0,0,0,0,
16.52015, 13:18:57.884,0,0,0,0,0,0,0,0,0,
16.58726, 13:18:57.952,0,0,0,0,0,0,0,0,0,
16.64504, 13:18:58.009,0,0,0,0,0,0,0,0,0,
16.68398, 13:18:58.047,0,0,0,0,0,0,0,0,0,
16.73139, 13:18:58.095,0,0,0,0,0,0,0,0,0,
16.86375, 13:18:58.233,0,0,0,0,0,0,0,0,0,
16.91913, 13:18:58.283,0,0,0,0,0,0,0,0,0,
16.99916, 13:18:58.478,0,0,0,0,0,0,0,0,0,
17.1561, 13:18:58.526,0,0,0,0,0,0,0,0,0,
17.23012, 13:18:58.597,0,0,0,0,0,0,0,0,0,
17.28606, 13:18:58.650,0,0,0,0,0,0,0,0,0,
17.33188, 13:18:58.696,0,0,0,0,0,0,0,0,0,
17.3824, 13:18:58.746,0,0,0,0,0,0,0,0,0,
17.44378, 13:18:58.807,0,0,0,0,0,0,0,0,0,
17.48943, 13:18:58.852,0,0,0,0,0,0,0,0,0,
17.53506, 13:18:58.898,0,0,0,0,0,0,0,0,0,
17.57103, 13:18:58.935,0,0,0,0,0,0,0,0,0,
17.60438, 13:18:58.967,0,0,0,0,0,0,0,0,0,
17.64113, 13:18:59.003,0,0,0,0,0,0,0,0,0,
17.68617, 13:18:59.049,0,0,0,0,0,0,0,0,0,
17.72363, 13:18:59.087,0,0,0,0,0,0,0,0,0,
17.75767, 13:18:59.120,0,0,0,0,0,0,0,0,0,
17.79137, 13:18:59.154,0,0,0,0,0,0,0,0,0,
17.83732, 13:18:59.201,0,0,0,0,0,0,0,0,0,
17.87672, 13:18:59.240,0,0,0,0,0,0,0,0,0,
17.91102, 13:18:59.274,0,0,0,0,0,0,0,0,0,
17.94419, 13:18:59.308,0,0,0,0,0,0,0,0,0,
17.98708, 13:18:59.350,0,0,0,0,0,0,0,0,0,
18.02635, 13:18:59.390,0,0,0,0,0,0,0,0,0,
18.06247, 13:18:59.425,0,0,0,0,0,0,0,0,0,
18.09963, 13:18:59.462,0,0,0,0,0,0,0,0,0,
18.14227, 13:18:59.506,0,0,0,0,0,0,0,0,0,
18.18173, 13:18:59.544,0,0,0,0,0,0,0,0,0,
18.21557, 13:18:59.578,0,0,0,0,0,0,0,0,0,
18.2488, 13:18:59.612,0,0,0,0,0,0,0,0,0,
18.2847, 13:18:59.648,0,0,0,0,0,0,0,0,0,
18.33817, 13:18:59.702,0,0,0,0,0,0,0,0,0,
18.38169, 13:18:59.747,0,0,0,0,0,0,0,0,0,
18.43111, 13:18:59.795,0,0,0,0,0,0,0,0,0,
18.46756, 13:18:59.830,0,0,0,0,0,0,0,0,0,
18.51062, 13:18:59.874,0,0,0,0,0,0,0,0,0,
18.54986, 13:18:59.913,0,0,0,0,0,0,0,0,0,
18.58434, 13:18:59.947,0,0,0,0,0,0,0,0,0,
18.61705, 13:18:59.979,0,0,0,0,0,0,0,0,0,
18.65123, 13:19:00.016,0,0,0,0,0,0,0,0,0,
18.69686, 13:19:00.060,0,0,0,0,0,0,0,0,0,
18.7341, 13:19:00.097,0,0,0,0,0,0,0,0,0,
18.77191, 13:19:00.135,0,0,0,0,0,0,0,0,0,
18.80555, 13:19:00.168,0,0,0,0,0,0,0,0,0,
18.84792, 13:19:00.210,0,0,0,0,0,0,0,0,0,
18.88494, 13:19:00.248,0,0,0,0,0,0,0,0,0,
18.91994, 13:19:00.282,0,0,0,0,0,0,0,0,0,
18.95273, 13:19:00.316,0,0,0,0,0,0,0,0,0,
18.99005, 13:19:00.353,0,0,0,0,0,0,0,0,0,
19.03677, 13:19:00.399,0,0,0,0,0,0,0,0,0,
19.07378, 13:19:00.436,0,0,0,0,0,0,0,0,0,
19.10595, 13:19:00.470,0,0,0,0,0,0,0,0,0,
19.13833, 13:19:00.500,0,0,0,0,0,0,0,0,0,
19.16979, 13:19:00.533,0,0,0,0,0,0,0,0,0,
19.21326, 13:19:00.576,0,0,0,0,0,0,0,0,0,
19.25401, 13:19:00.618,0,0,0,0,0,0,0,0,0,
19.28566, 13:19:00.649,0,0,0,0,0,0,0,0,0,
19.31808, 13:19:00.680,0,0,0,0,0,0,0,0,0,
19.3498, 13:19:00.712,0,0,0,0,0,0,0,0,0,
19.39193, 13:19:00.756,0,0,0,0,0,0,0,0,0,
19.42951, 13:19:00.793,0,0,0,0,0,0,0,0,0,
19.46291, 13:19:00.826,0,0,0,0,0,0,0,0,0,
19.49783, 13:19:00.860,0,0,0,0,0,0,0,0,0,
19.53373, 13:19:00.898,0,0,0,0,0,0,0,0,0,
19.58865, 13:19:00.954,0,0,0,0,0,0,0,0,0,
19.63237, 13:19:00.995,0,0,0,0,0,0,0,0,0,
19.66881, 13:19:01.032,0,0,0,0,0,0,0,0,0,
19.70101, 13:19:01.064,0,0,0,0,0,0,0,0,0,
19.74334, 13:19:01.107,0,0,0,0,0,0,0,0,0,
19.78472, 13:19:01.147,0,0,0,0,0,0,0,0,0,
19.81806, 13:19:01.180,0,0,0,0,0,0,0,0,0,
19.84917, 13:19:01.212,0,0,0,0,0,0,0,0,0,
19.89022, 13:19:01.254,0,0,0,0,0,0,0,0,0,
19.93632, 13:19:01.300,0,0,0,0,0,0,0,0,0,
19.97242, 13:19:01.336,0,0,0,0,0,0,0,0,0,
20.00536, 13:19:01.369,0,0,0,0,0,0,0,0,0,
20.04332, 13:19:01.406,0,0,0,0,0,0,0,0,0,
20.08804, 13:19:01.451,0,0,0,0,0,0,0,0,0,
20.12536, 13:19:01.489,0,0,0,0,0,0,0,0,0,
20.15768, 13:19:01.520,0,0,0,0,0,0,0,0,0,
20.1897, 13:19:01.553,0,0,0,0,0,0,0,0,0,
20.22279, 13:19:01.585,0,0,0,0,0,0,0,0,0,
20.26892, 13:19:01.632,0,0,0,0,0,0,0,0,0,
20.30598, 13:19:01.670,0,0,0,0,0,0,0,0,0,
20.34156, 13:19:01.706,0,0,0,0,0,0,0,0,0,
20.3739, 13:19:01.735,0,0,0,0,0,0,0,0,0,
20.41427, 13:19:01.777,0,0,0,0,0,0,0,0,0,
20.44891, 13:19:01.812,0,0,0,0,0,0,0,0,0,
20.48217, 13:19:01.845,0,0,0,0,0,0,0,0,0,
20.51302, 13:19:01.875,0,0,0,0,0,0,0,0,0,
20.55196, 13:19:01.915,0,0,0,0,0,0,0,0,0,
20.59764, 13:19:01.961,0,0,0,0,0,0,0,0,0,
20.63287, 13:19:01.995,0,0,0,0,0,0,0,0,0,
20.66738, 13:19:02.032,0,0,0,0,0,0,0,0,0,
20.70646, 13:19:02.071,0,0,0,0,0,0,0,0,0,
20.76742, 13:19:02.131,0,0,0,0,0,0,0,0,0,
20.80978, 13:19:02.173,0,0,0,0,0,0,0,0,0,
20.84102, 13:19:02.204,0,0,0,0,0,0,0,0,0,
20.87395, 13:19:02.236,0,0,0,0,0,0,0,0,0,
20.91892, 13:19:02.282,0,0,0,0,0,0,0,0,0,
20.95346, 13:19:02.315,0,0,0,0,0,0,0,0,0,
20.9844, 13:19:02.348,0,0,0,0,0,0,0,0,0,
21.02092, 13:19:02.385,0,0,0,0,0,0,0,0,0,
21.05583, 13:19:02.418,0,0,0,0,0,0,0,0,0,
21.09597, 13:19:02.460,0,0,0,0,0,0,0,0,0,
21.13127, 13:19:02.495,0,0,0,0,0,0,0,0,0,
21.16378, 13:19:02.527,0,0,0,0,0,0,0,0,0,
21.19668, 13:19:02.559,0,0,0,0,0,0,0,0,0,
21.23372, 13:19:02.596,0,0,0,0,0,0,0,0,0,
21.27523, 13:19:02.639,0,0,0,0,0,0,0,0,0,
21.31048, 13:19:02.673,0,0,0,0,0,0,0,0,0,
21.34182, 13:19:02.705,0,0,0,0,0,0,0,0,0,
21.37428, 13:19:02.737,0,0,0,0,0,0,0,0,0,
21.40566, 13:19:02.769,0,0,0,0,0,0,0,0,0,
21.45097, 13:19:02.814,0,0,0,0,0,0,0,0,0,
21.48573, 13:19:02.848,0,0,0,0,0,0,0,0,0,
21.51781, 13:19:02.880,0,0,0,0,0,0,0,0,0,
21.54852, 13:19:02.911,0,0,0,0,0,0,0,0,0,
21.57959, 13:19:02.941,0,0,0,0,0,0,0,0,0,
21.62918, 13:19:02.993,0,0,0,0,0,0,0,0,0,
21.66831, 13:19:03.032,0,0,0,0,0,0,0,0,0,
21.70121, 13:19:03.064,0,0,0,0,0,0,0,0,0,
21.73384, 13:19:03.097,0,0,0,0,0,0,0,0,0,
21.77369, 13:19:03.138,0,0,0,0,0,0,0,0,0,
21.80867, 13:19:03.172,0,0,0,0,0,0,0,0,0,
21.85641, 13:19:03.220,0,0,0,0,0,0,0,0,0,
21.91749, 13:19:03.283,0,0,0,0,0,0,0,0,0,
21.97924, 13:19:03.344,0,0,0,0,0,0,0,0,0,
22.02691, 13:19:03.391,0,0,0,0,0,0,0,0,0,
22.07231, 13:19:03.436,0,0,0,0,0,0,0,0,0,
22.12864, 13:19:03.494,0,0,0,0,0,0,0,0,0,
22.17522, 13:19:03.538,0,0,0,0,0,0,0,0,0,
22.21788, 13:19:03.580,0,0,0,0,0,0,0,0,0,
22.26255, 13:19:03.626,0,0,0,0,0,0,0,0,0,
22.30889, 13:19:03.671,0,0,0,0,0,0,0,0,0,
22.3499, 13:19:03.714,0,0,0,0,0,0,0,0,0,
22.3824, 13:19:03.746,0,0,0,0,0,0,0,0,0,
22.41629, 13:19:03.779,0,0,0,0,0,0,0,0,0,
22.45832, 13:19:03.822,0,0,0,0,0,0,0,0,0,
22.49329, 13:19:03.856,0,0,0,0,0,0,0,0,0,
22.52452, 13:19:03.888,0,0,0,0,0,0,0,0,0,
22.55926, 13:19:03.921,0,0,0,0,0,0,0,0,0,
22.59183, 13:19:03.954,0,0,0,0,0,0,0,0,0,
22.63412, 13:19:03.997,0,0,0,0,0,0,0,0,0,
22.66916, 13:19:04.033,0,0,0,0,0,0,0,0,0,
22.70175, 13:19:04.064,0,0,0,0,0,0,0,0,0,
22.73386, 13:19:04.096,0,0,0,0,0,0,0,0,0,
22.76932, 13:19:04.132,0,0,0,0,0,0,0,0,0,
22.81312, 13:19:04.176,0,0,0,0,0,0,0,0,0,
22.84878, 13:19:04.212,0,0,0,0,0,0,0,0,0,
22.8813, 13:19:04.245,0,0,0,0,0,0,0,0,0,
22.91508, 13:19:04.277,0,0,0,0,0,0,0,0,0,
22.94724, 13:19:04.309,0,0,0,0,0,0,0,0,0,
22.99557, 13:19:04.359,0,0,0,0,0,0,0,0,0,
23.03969, 13:19:04.404,0,0,0,0,0,0,0,0,0,
23.08561, 13:19:04.450,0,0,0,0,0,0,0,0,0,
23.12141, 13:19:04.484,0,0,0,0,0,0,0,0,0,
23.16478, 13:19:04.528,0,0,0,0,0,0,0,0,0,
23.20418, 13:19:04.568,0,0,0,0,0,0,0,0,0,
23.23977, 13:19:04.602,0,0,0,0,0,0,0,0,0,
23.27306, 13:19:04.637,0,0,0,0,0,0,0,0,0,
23.31875, 13:19:04.683,0,0,0,0,0,0,0,0,0,
23.35546, 13:19:04.718,0,0,0,0,0,0,0,0,0,
23.38906, 13:19:04.752,0,0,0,0,0,0,0,0,0,
23.42496, 13:19:04.787,0,0,0,0,0,0,0,0,0,
23.46808, 13:19:04.831,0,0,0,0,0,0,0,0,0,
23.5059, 13:19:04.870,0,0,0,0,0,0,0,0,0,
23.54029, 13:19:04.903,0,0,0,0,0,0,0,0,0,
23.57457, 13:19:04.937,0,0,0,0,0,0,0,0,0,
23.6117, 13:19:04.975,0,0,0,0,0,0,0,0,0,
23.65455, 13:19:05.018,0,0,0,0,0,0,0,0,0,
23.68966, 13:19:05.054,0,0,0,0,0,0,0,0,0,
23.72195, 13:19:05.085,0,0,0,0,0,0,0,0,0,
23.75567, 13:19:05.117,0,0,0,0,0,0,0,0,0,
23.78869, 13:19:05.151,0,0,0,0,0,0,0,0,0,
23.83112, 13:19:05.194,0,0,0,0,0,0,0,0,0,
23.8699, 13:19:05.233,0,0,0,0,0,0,0,0,0,
23.90291, 13:19:05.266,0,0,0,0,0,0,0,0,0,
23.93911, 13:19:05.301,0,0,0,0,0,0,0,0,0,
23.99796, 13:19:05.362,0,0,0,0,0,0,0,0,0,
24.03614, 13:19:05.400,0,0,0,0,0,0,0,0,0,
24.07012, 13:19:05.434,0,0,0,0,0,0,0,0,0,
24.1029, 13:19:05.466,0,0,0,0,0,0,0,0,0,
24.15184, 13:19:05.515,0,0,0,0,0,0,0,0,0,
24.19351, 13:19:05.557,0,0,0,0,0,0,0,0,0,
24.2383, 13:19:05.603,0,0,0,0,0,0,0,0,0,
24.27563, 13:19:05.639,0,0,0,0,0,0,0,0,0,
24.31824, 13:19:05.681,0,0,0,0,0,0,0,0,0,
24.35368, 13:19:05.717,0,0,0,0,0,0,0,0,0,
24.38722, 13:19:05.750,0,0,0,0,0,0,0,0,0,
24.42748, 13:19:05.790,0,0,0,0,0,0,0,0,0,
24.47048, 13:19:05.833,0,0,0,0,0,0,0,0,0,
24.51037, 13:19:05.876,0,0,0,0,0,0,0,0,0,
24.56528, 13:19:05.933,0,0,0,0,0,0,0,0,0,
24.61985, 13:19:05.986,0,0,0,0,0,0,0,0,0,
24.68414, 13:19:06.053,0,0,0,0,0,0,0,0,0,
24.73935, 13:19:06.102,0,0,0,0,0,0,0,0,0,
24.7715, 13:19:06.135,0,0,0,0,0,0,0,0,0,
24.81513, 13:19:06.177,0,0,0,0,0,0,0,0,0,
24.85404, 13:19:06.216,0,0,0,0,0,0,0,0,0,
24.89583, 13:19:06.258,0,0,0,0,0,0,0,0,0,
24.93117, 13:19:06.294,0,0,0,0,0,0,0,0,0,
24.97628, 13:19:06.340,0,0,0,0,0,0,0,0,0,
25.01139, 13:19:06.375,0,0,0,0,0,0,0,0,0,
25.04805, 13:19:06.410,0,0,0,0,0,0,0,0,0,
25.0817, 13:19:06.446,0,0,0,0,0,0,0,0,0,
25.12605, 13:19:06.490,0,0,0,0,0,0,0,0,0,
25.16304, 13:19:06.527,0,0,0,0,0,0,0,0,0,
25.19717, 13:19:06.559,0,0,0,0,0,0,0,0,0,
25.23083, 13:19:06.594,0,0,0,0,0,0,0,0,0,
25.26472, 13:19:06.627,0,0,0,0,0,0,0,0,0,
25.30679, 13:19:06.670,0,0,0,0,0,0,0,0,0,
25.34904, 13:19:06.714,0,0,0,0,0,0,0,0,0,
25.39689, 13:19:06.761,0,0,0,0,0,0,0,0,0,
25.43443, 13:19:06.797,0,0,0,0,0,0,0,0,0,
25.47932, 13:19:06.843,0,0,0,0,0,0,0,0,0,
25.51517, 13:19:06.878,0,0,0,0,0,0,0,0,0,
25.54749, 13:19:06.910,0,0,0,0,0,0,0,0,0,
25.58119, 13:19:06.943,0,0,0,0,0,0,0,0,0,
25.61679, 13:19:06.979,0,0,0,0,0,0,0,0,0,
25.65876, 13:19:07.022,0,0,0,0,0,0,0,0,0,
25.69418, 13:19:07.057,0,0,0,0,0,0,0,0,0,
25.72536, 13:19:07.088,0,0,0,0,0,0,0,0,0,
25.75776, 13:19:07.120,0,0,0,0,0,0,0,0,0,
25.79045, 13:19:07.153,0,0,0,0,0,0,0,0,0,
25.83533, 13:19:07.199,0,0,0,0,0,0,0,0,0,
25.87146, 13:19:07.235,0,0,0,0,0,0,0,0,0,
25.90451, 13:19:07.267,0,0,0,0,0,0,0,0,0,
25.93745, 13:19:07.300,0,0,0,0,0,0,0,0,0,
25.9695, 13:19:07.333,0,0,0,0,0,0,0,0,0,
26.01215, 13:19:07.376,0,0,0,0,0,0,0,0,0,
26.0517, 13:19:07.414,0,0,0,0,0,0,0,0,0,
26.08368, 13:19:07.446,0,0,0,0,0,0,0,0,0,
26.11628, 13:19:07.478,0,0,0,0,0,0,0,0,0,
26.15574, 13:19:07.518,0,0,0,0,0,0,0,0,0,
26.20536, 13:19:07.569,0,0,0,0,0,0,0,0,0,
26.24122, 13:19:07.604,0,0,0,0,0,0,0,0,0,
26.27531, 13:19:07.638,0,0,0,0,0,0,0,0,0,
26.3077, 13:19:07.671,0,0,0,0,0,0,0,0,0,
26.34949, 13:19:07.713,0,0,0,0,0,0,0,0,0,
26.383, 13:19:07.747,0,0,0,0,0,0,0,0,0,
26.41738, 13:19:07.779,0,0,0,0,0,0,0,0,0,
26.45126, 13:19:07.814,0,0,0,0,0,0,0,0,0,
26.49225, 13:19:07.856,0,0,0,0,0,0,0,0,0,
26.54591, 13:19:07.911,0,0,0,0,0,0,0,0,0,
26.59383, 13:19:07.957,0,0,0,0,0,0,0,0,0,
26.62956, 13:19:07.993,0,0,0,0,0,0,0,0,0,
26.66209, 13:19:08.025,0,0,0,0,0,0,0,0,0,
26.70568, 13:19:08.068,0,0,0,0,0,0,0,0,0,
26.74109, 13:19:08.105,0,0,0,0,0,0,0,0,0,
26.77409, 13:19:08.136,0,0,0,0,0,0,0,0,0,
26.80498, 13:19:08.168,0,0,0,0,0,0,0,0,0,
26.83754, 13:19:08.200,0,0,0,0,0,0,0,0,0,
26.87906, 13:19:08.242,0,0,0,0,0,0,0,0,0,
26.91589, 13:19:08.280,0,0,0,0,0,0,0,0,0,
26.9481, 13:19:08.310,0,0,0,0,0,0,0,0,0,
26.9807, 13:19:08.343,0,0,0,0,0,0,0,0,0,
27.01306, 13:19:08.375,0,0,0,0,0,0,0,0,0,
27.05972, 13:19:08.424,0,0,0,0,0,0,0,0,0,
27.09439, 13:19:08.457,0,0,0,0,0,0,0,0,0,
27.13144, 13:19:08.494,0,0,0,0,0,0,0,0,0,
27.16671, 13:19:08.530,0,0,0,0,0,0,0,0,0,
27.20882, 13:19:08.571,0,0,0,0,0,0,0,0,0,
27.24582, 13:19:08.608,0,0,0,0,0,0,0,0,0,
27.27887, 13:19:08.640,0,0,0,0,0,0,0,0,0,
27.30787, 13:19:08.670,0,0,0,0,0,0,0,0,0,
27.34282, 13:19:08.706,0,0,0,0,0,0,0,0,0,
27.38684, 13:19:08.749,0,0,0,0,0,0,0,0,0,
27.42247, 13:19:08.786,0,0,0,0,0,0,0,0,0,
27.45447, 13:19:08.817,0,0,0,0,0,0,0,0,0,
27.48717, 13:19:08.850,0,0,0,0,0,0,0,0,0,
27.5195, 13:19:08.881,0,0,0,0,0,0,0,0,0,
27.5627, 13:19:08.926,0,0,0,0,0,0,0,0,0,
27.60045, 13:19:08.963,0,0,0,0,0,0,0,0,0,
27.63333, 13:19:08.995,0,0,0,0,0,0,0,0,0,
27.67383, 13:19:09.037,0,0,0,0,0,0,0,0,0,
27.73741, 13:19:09.103,0,0,0,0,0,0,0,0,0,
27.78261, 13:19:09.147,0,0,0,0,0,0,0,0,0,
27.81629, 13:19:09.178,0,0,0,0,0,0,0,0,0,
27.84749, 13:19:09.210,0,0,0,0,0,0,0,0,0,
27.8897, 13:19:09.253,0,0,0,0,0,0,0,0,0,
27.92551, 13:19:09.288,0,0,0,0,0,0,0,0,0,
27.96465, 13:19:09.328,0,0,0,0,0,0,0,0,0,
27.99909, 13:19:09.361,0,0,0,0,0,0,0,0,0,
28.04389, 13:19:09.408,0,0,0,0,0,0,0,0,0,
28.08004, 13:19:09.443,0,0,0,0,0,0,0,0,0,
28.11237, 13:19:09.475,0,0,0,0,0,0,0,0,0,
28.14365, 13:19:09.507,0,0,0,0,0,0,0,0,0,
28.17709, 13:19:09.539,0,0,0,0,0,0,0,0,0,
28.21963, 13:19:09.582,0,0,0,0,0,0,0,0,0,
28.25416, 13:19:09.617,0,0,0,0,0,0,0,0,0,
28.28588, 13:19:09.649,0,0,0,0,0,0,0,0,0,
28.31761, 13:19:09.680,0,0,0,0,0,0,0,0,0,
28.35, 13:19:09.713,0,0,0,0,0,0,0,0,0,
28.39113, 13:19:09.754,0,0,0,0,0,0,0,0,0,
28.4272, 13:19:09.791,0,0,0,0,0,0,0,0,0,
28.46044, 13:19:09.823,0,0,0,0,0,0,0,0,0,
28.49504, 13:19:09.856,0,0,0,0,0,0,0,0,0,
28.52821, 13:19:09.892,0,0,0,0,0,0,0,0,0,
28.57218, 13:19:09.936,0,0,0,0,0,0,0,0,0,
28.60658, 13:19:09.969,0,0,0,0,0,0,0,0,0,
28.6412, 13:19:10.004,0,0,0,0,0,0,0,0,0,
28.67561, 13:19:10.037,0,0,0,0,0,0,0,0,0,
28.70773, 13:19:10.071,0,0,0,0,0,0,0,0,0,
28.75192, 13:19:10.115,0,0,0,0,0,0,0,0,0,
28.78765, 13:19:10.151,0,0,0,0,0,0,0,0,0,
28.82214, 13:19:10.185,0,0,0,0,0,0,0,0,0,
28.86306, 13:19:10.227,0,0,0,0,0,0,0,0,0,
28.92275, 13:19:10.287,0,0,0,0,0,0,0,0,0,
28.96046, 13:19:10.324,0,0,0,0,0,0,0,0,0,
28.99284, 13:19:10.354,0,0,0,0,0,0,0,0,0,
29.02635, 13:19:10.390,0,0,0,0,0,0,0,0,0,
29.07282, 13:19:10.436,0,0,0,0,0,0,0,0,0,
29.11019, 13:19:10.473,0,0,0,0,0,0,0,0,0,
29.14312, 13:19:10.506,0,0,0,0,0,0,0,0,0,
29.17707, 13:19:10.540,0,0,0,0,0,0,0,0,0,
29.22023, 13:19:10.584,0,0,0,0,0,0,0,0,0,
29.25435, 13:19:10.617,0,0,0,0,0,0,0,0,0,
29.28849, 13:19:10.651,0,0,0,0,0,0,0,0,0,
29.31992, 13:19:10.682,0,0,0,0,0,0,0,0,0,
29.35883, 13:19:10.722,0,0,0,0,0,0,0,0,0,
29.40788, 13:19:10.773,0,0,0,0,0,0,0,0,0,
29.4452, 13:19:10.808,0,0,0,0,0,0,0,0,0,
29.47774, 13:19:10.840,0,0,0,0,0,0,0,0,0,
29.51208, 13:19:10.876,0,0,0,0,0,0,0,0,0,
29.55356, 13:19:10.917,0,0,0,0,0,0,0,0,0,
29.5886, 13:19:10.952,0,0,0,0,0,0,0,0,0,
29.62041, 13:19:10.984,0,0,0,0,0,0,0,0,0,
29.65218, 13:19:11.013,0,0,0,0,0,0,0,0,0,
29.68403, 13:19:11.047,0,0,0,0,0,0,0,0,0,
29.73005, 13:19:11.094,0,0,0,0,0,0,0,0,0,
29.7748, 13:19:11.139,0,0,0,0,0,0,0,0,0,
29.81382, 13:19:11.178,0,0,0,0,0,0,0,0,0,
29.84779, 13:19:11.210,0,0,0,0,0,0,0,0,0,
29.89058, 13:19:11.254,0,0,0,0,0,0,0,0,0,
29.92835, 13:19:11.292,0,0,0,0,0,0,0,0,0,
29.96072, 13:19:11.324,0,0,0,0,0,0,0,0,0,
29.9964, 13:19:11.359,0,0,0,0,0,0,0,0,0,
30.03688, 13:19:11.402,0,0,0,0,0,0,0,0,0,
30.09039, 13:19:11.455,0,0,0,0,0,0,0,0,0,
30.12916, 13:19:11.492,0,0,0,0,0,0,0,0,0,
30.16382, 13:19:11.527,0,0,0,0,0,0,0,0,0,
30.19831, 13:19:11.560,0,0,0,0,0,0,0,0,0,
30.23985, 13:19:11.603,0,0,0,0,0,0,0,0,0,
30.27706, 13:19:11.640,0,0,0,0,0,0,0,0,0,
30.31024, 13:19:11.673,0,0,0,0,0,0,0,0,0,
30.3501, 13:19:11.715,0,0,0,0,0,0,0,0,0,
30.39612, 13:19:11.758,0,0,0,0,0,0,0,0,0,
30.43102, 13:19:11.794,0,0,0,0,0,0,0,0,0,
30.46265, 13:19:11.825,0,0,0,0,0,0,0,0,0,
30.49443, 13:19:11.856,0,0,0,0,0,0,0,0,0,
30.52596, 13:19:11.889,0,0,0,0,0,0,0,0,0,
30.56764, 13:19:11.930,0,0,0,0,0,0,0,0,0,
30.60755, 13:19:11.971,0,0,0,0,0,0,0,0,0,
30.63924, 13:19:12.001,0,0,0,0,0,0,0,0,0,
30.67109, 13:19:12.035,0,0,0,0,0,0,0,0,0,
30.70408, 13:19:12.068,0,0,0,0,0,0,0,0,0,
30.74768, 13:19:12.111,0,0,0,0,0,0,0,0,0,
30.78244, 13:19:12.145,0,0,0,0,0,0,0,0,0,
30.81734, 13:19:12.179,0,0,0,0,0,0,0,0,0,
30.84824, 13:19:12.211,0,0,0,0,0,0,0,0,0,
30.88879, 13:19:12.252,0,0,0,0,0,0,0,0,0,
30.93665, 13:19:12.300,0,0,0,0,0,0,0,0,0,
30.97303, 13:19:12.335,0,0,0,0,0,0,0,0,0,
31.00678, 13:19:12.369,0,0,0,0,0,0,0,0,0,
31.04577, 13:19:12.408,0,0,0,0,0,0,0,0,0,
31.08918, 13:19:12.452,0,0,0,0,0,0,0,0,0,
31.12607, 13:19:12.490,0,0,0,0,0,0,0,0,0,
31.16419, 13:19:12.529,0,0,0,0,0,0,0,0,0,
31.21034, 13:19:12.575,0,0,0,0,0,0,0,0,0,
31.25811, 13:19:12.621,0,0,0,0,0,0,0,0,0,
31.29629, 13:19:12.660,0,0,0,0,0,0,0,0,0,
31.32977, 13:19:12.693,0,0,0,0,0,0,0,0,0,
31.36297, 13:19:12.725,0,0,0,0,0,0,0,0,0,
31.40484, 13:19:12.768,0,0,0,0,0,0,0,0,0,
31.44219, 13:19:12.805,0,0,0,0,0,0,0,0,0,
31.47749, 13:19:12.839,0,0,0,0,0,0,0,0,0,
31.50878, 13:19:12.872,0,0,0,0,0,0,0,0,0,
31.54516, 13:19:12.908,0,0,0,0,0,0,0,0,0,
31.58747, 13:19:12.950,0,0,0,0,0,0,0,0,0,
31.62327, 13:19:12.986,0,0,0,0,0,0,0,0,0,
31.65465, 13:19:13.017,0,0,0,0,0,0,0,0,0,
31.69267, 13:19:13.056,0,0,0,0,0,0,0,0,0,
31.73121, 13:19:13.095,0,0,0,0,0,0,0,0,0,
31.77605, 13:19:13.139,0,0,0,0,0,0,0,0,0,
31.81033, 13:19:13.173,0,0,0,0,0,0,0,0,0,
31.84239, 13:19:13.205,0,0,0,0,0,0,0,0,0,
31.87451, 13:19:13.236,0,0,0,0,0,0,0,0,0,
31.90909, 13:19:13.272,0,0,0,0,0,0,0,0,0,
31.95177, 13:19:13.315,0,0,0,0,0,0,0,0,0,
31.98758, 13:19:13.350,0,0,0,0,0,0,0,0,0,
32.021, 13:19:13.384,0,0,0,0,0,0,0,0,0,
32.05462, 13:19:13.417,0,0,0,0,0,0,0,0,0,
32.08766, 13:19:13.451,0,0,0,0,0,0,0,0,0,
32.13315, 13:19:13.496,0,0,0,0,0,0,0,0,0,
32.16778, 13:19:13.531,0,0,0,0,0,0,0,0,0,
32.20047, 13:19:13.564,0,0,0,0,0,0,0,0,0,
32.23416, 13:19:13.596,0,0,0,0,0,0,0,0,0,
32.2677, 13:19:13.630,0,0,0,0,0,0,0,0,0,
32.31941, 13:19:13.683,0,0,0,0,0,0,0,0,0,
32.36337, 13:19:13.730,0,0,0,0,0,0,0,0,0,
32.40882, 13:19:13.772,0,0,0,0,0,0,0,0,0,
32.44242, 13:19:13.806,0,0,0,0,0,0,0,0,0,
32.48654, 13:19:13.850,0,0,0,0,0,0,0,0,0,
32.5209, 13:19:13.885,0,0,0,0,0,0,0,0,0,
32.5549, 13:19:13.916,0,0,0,0,0,0,0,0,0,
32.58591, 13:19:13.949,0,0,0,0,0,0,0,0,0,
32.61772, 13:19:13.980,0,0,0,0,0,0,0,0,0,
32.66347, 13:19:14.027,0,0,0,0,0,0,0,0,0,
32.69849, 13:19:14.061,0,0,0,0,0,0,0,0,0,
32.72885, 13:19:14.091,0,0,0,0,0,0,0,0,0,
32.76294, 13:19:14.126,0,0,0,0,0,0,0,0,0,
32.79404, 13:19:14.156,0,0,0,0,0,0,0,0,0,
32.8357, 13:19:14.198,0,0,0,0,0,0,0,0,0,
32.86946, 13:19:14.232,0,0,0,0,0,0,0,0,0,
32.901, 13:19:14.265,0,0,0,0,0,0,0,0,0,
32.93226, 13:19:14.295,0,0,0,0,0,0,0,0,0,
32.96783, 13:19:14.331,0,0,0,0,0,0,0,0,0,
33.0141, 13:19:14.378,0,0,0,0,0,0,0,0,0,
33.05214, 13:19:14.416,0,0,0,0,0,0,0,0,0,
33.08799, 13:19:14.452,0,0,0,0,0,0,0,0,0,
33.12376, 13:19:14.487,0,0,0,0,0,0,0,0,0,
33.16413, 13:19:14.528,0,0,0,0,0,0,0,0,0,
33.20712, 13:19:14.571,0,0,0,0,0,0,0,0,0,
33.23958, 13:19:14.601,0,0,0,0,0,0,0,0,0,
33.27254, 13:19:14.636,0,0,0,0,0,0,0,0,0,
33.30925, 13:19:14.673,0,0,0,0,0,0,0,0,0,
33.35418, 13:19:14.718,0,0,0,0,0,0,0,0,0,
33.39011, 13:19:14.752,0,0,0,0,0,0,0,0,0,
33.42482, 13:19:14.787,0,0,0,0,0,0,0,0,0,
33.45876, 13:19:14.822,0,0,0,0,0,0,0,0,0,
33.49374, 13:19:14.859,0,0,0,0,0,0,0,0,0,
33.5513, 13:19:14.916,0,0,0,0,0,0,0,0,0,
33.58983, 13:19:14.953,0,0,0,0,0,0,0,0,0,
33.6218, 13:19:14.984,0,0,0,0,0,0,0,0,0,
33.65528, 13:19:15.018,0,0,0,0,0,0,0,0,0,
33.69582, 13:19:15.060,0,0,0,0,0,0,0,0,0,
33.7305, 13:19:15.094,0,0,0,0,0,0,0,0,0,
33.76081, 13:19:15.124,0,0,0,0,0,0,0,0,0,
33.79583, 13:19:15.157,0,0,0,0,0,0,0,0,0,
33.83553, 13:19:15.198,0,0,0,0,0,0,0,0,0,
33.88096, 13:19:15.245,0,0,0,0,0,0,0,0,0,
33.91559, 13:19:15.278,0,0,0,0,0,0,0,0,0,
33.9472, 13:19:15.310,0,0,0,0,0,0,0,0,0,
33.97974, 13:19:15.342,0,0,0,0,0,0,0,0,0,
34.01011, 13:19:15.375,0,0,0,0,0,0,0,0,0,
34.05604, 13:19:15.419,0,0,0,0,0,0,0,0,0,
34.09332, 13:19:15.457,0,0,0,0,0,0,0,0,0,
34.1267, 13:19:15.489,0,0,0,0,0,0,0,0,0,
34.15722, 13:19:15.519,0,0,0,0,0,0,0,0,0,
34.18919, 13:19:15.553,0,0,0,0,0,0,0,0,0,
34.23301, 13:19:15.597,0,0,0,0,0,0,0,0,0,
34.26801, 13:19:15.630,0,0,0,0,0,0,0,0,0,
34.30262, 13:19:15.665,0,0,0,0,0,0,0,0,0,
34.33325, 13:19:15.696,0,0,0,0,0,0,0,0,0,
34.36831, 13:19:15.732,0,0,0,0,0,0,0,0,0,
34.41192, 13:19:15.775,0,0,0,0,0,0,0,0,0,
34.44632, 13:19:15.809,0,0,0,0,0,0,0,0,0,
34.4767, 13:19:15.839,0,0,0,0,0,0,0,0,0,
34.51169, 13:19:15.875,0,0,0,0,0,0,0,0,0,
34.54671, 13:19:15.909,0,0,0,0,0,0,0,0,0,
34.58828, 13:19:15.951,0,0,0,0,0,0,0,0,0,
34.62445, 13:19:15.988,0,0,0,0,0,0,0,0,0,
34.66378, 13:19:16.028,0,0,0,0,0,0,0,0,0,
34.70613, 13:19:16.070,0,0,0,0,0,0,0,0,0,
34.75652, 13:19:16.119,0,0,0,0,0,0,0,0,0,
34.79262, 13:19:16.155,0,0,0,0,0,0,0,0,0,
34.82175, 13:19:16.185,0,0,0,0,0,0,0,0,0,
34.85272, 13:19:16.215,0,0,0,0,0,0,0,0,0,
34.88432, 13:19:16.248,0,0,0,0,0,0,0,0,0,
34.9265, 13:19:16.289,0,0,0,0,0,0,0,0,0,
34.96444, 13:19:16.327,0,0,0,0,0,0,0,0,0,
35.00057, 13:19:16.364,0,0,0,0,0,0,0,0,0,
35.0344, 13:19:16.397,0,0,0,0,0,0,0,0,0,
35.07673, 13:19:16.440,0,0,0,0,0,0,0,0,0,
35.11061, 13:19:16.473,0,0,0,0,0,0,0,0,0,
35.1415, 13:19:16.504,0,0,0,0,0,0,0,0,0,
35.17561, 13:19:16.537,0,0,0,0,0,0,0,0,0,
35.20737, 13:19:16.570,0,0,0,0,0,0,0,0,0,
35.25138, 13:19:16.615,0,0,0,0,0,0,0,0,0,
35.28823, 13:19:16.652,0,0,0,0,0,0,0,0,0,
35.31973, 13:19:16.682,0,0,0,0,0,0,0,0,0,
35.35091, 13:19:16.714,0,0,0,0,0,0,0,0,0,
35.38456, 13:19:16.749,0,0,0,0,0,0,0,0,0,
35.4278, 13:19:16.792,0,0,0,0,0,0,0,0,0,
35.46194, 13:19:16.824,0,0,0,0,0,0,0,0,0,
35.49371, 13:19:16.856,0,0,0,0,0,0,0,0,0,
35.5246, 13:19:16.887,0,0,0,0,0,0,0,0,0,
35.55542, 13:19:16.918,0,0,0,0,0,0,0,0,0,
35.59948, 13:19:16.963,0,0,0,0,0,0,0,0,0,
35.63361, 13:19:16.997,0,0,0,0,0,0,0,0,0,
35.66401, 13:19:17.027,0,0,0,0,0,0,0,0,0,
35.69588, 13:19:17.058,0,0,0,0,0,0,0,0,0,
35.72815, 13:19:17.098,0,0,0,0,0,0,0,0,0,
35.77851, 13:19:17.142,0,0,0,0,0,0,0,0,0,
35.82529, 13:19:17.189,0,0,0,0,0,0,0,0,0,
35.86562, 13:19:17.230,0,0,0,0,0,0,0,0,0,
35.90162, 13:19:17.265,0,0,0,0,0,0,0,0,0,
35.94618, 13:19:17.310,0,0,0,0,0,0,0,0,0,
35.98051, 13:19:17.344,0,0,0,0,0,0,0,0,0,
36.01408, 13:19:17.376,0,0,0,0,0,0,0,0,0,
36.04821, 13:19:17.411,0,0,0,0,0,0,0,0,0,
36.08369, 13:19:17.447,0,0,0,0,0,0,0,0,0,
36.13575, 13:19:17.500,0,0,0,0,0,0,0,0,0,
36.1702, 13:19:17.533,0,0,0,0,0,0,0,0,0,
36.20266, 13:19:17.565,0,0,0,0,0,0,0,0,0,
36.23635, 13:19:17.599,0,0,0,0,0,0,0,0,0,
36.27645, 13:19:17.640,0,0,0,0,0,0,0,0,0,
36.31202, 13:19:17.674,0,0,0,0,0,0,0,0,0,
36.34221, 13:19:17.705,0,0,0,0,0,0,0,0,0,
36.37286, 13:19:17.735,0,0,0,0,0,0,0,0,0,
36.41214, 13:19:17.775,0,0,0,0,0,0,0,0,0,
36.45535, 13:19:17.819,0,0,0,0,0,0,0,0,0,
36.49015, 13:19:17.854,0,0,0,0,0,0,0,0,0,
36.52122, 13:19:17.885,0,0,0,0,0,0,0,0,0,
36.55305, 13:19:17.914,0,0,0,0,0,0,0,0,0,
36.58334, 13:19:17.947,0,0,0,0,0,0,0,0,0,
36.63172, 13:19:17.994,0,0,0,0,0,0,0,0,0,
36.66986, 13:19:18.033,0,0,0,0,0,0,0,0,0,
36.70527, 13:19:18.069,0,0,0,0,0,0,0,0,0,
36.74032, 13:19:18.104,0,0,0,0,0,0,0,0,0,
36.78382, 13:19:18.146,0,0,0,0,0,0,0,0,0,
36.8183, 13:19:18.181,0,0,0,0,0,0,0,0,0,
36.84976, 13:19:18.213,0,0,0,0,0,0,0,0,0,
36.88433, 13:19:18.247,0,0,0,0,0,0,0,0,0,
36.91562, 13:19:18.277,0,0,0,0,0,0,0,0,0,
36.95972, 13:19:18.324,0,0,0,0,0,0,0,0,0,
37.00069, 13:19:18.367,0,0,0,0,0,0,0,0,0,
37.05602, 13:19:18.420,0,0,0,0,0,0,0,0,0,
37.09378, 13:19:18.456,0,0,0,0,0,0,0,0,0,
37.13572, 13:19:18.498,0,0,0,0,0,0,0,0,0,
37.16845, 13:19:18.531,0,0,0,0,0,0,0,0,0,
37.20327, 13:19:18.566,0,0,0,0,0,0,0,0,0,
37.23665, 13:19:18.599,0,0,0,0,0,0,0,0,0,
37.26827, 13:19:18.632,0,0,0,0,0,0,0,0,0,
37.31186, 13:19:18.674,0,0,0,0,0,0,0,0,0,
37.34519, 13:19:18.708,0,0,0,0,0,0,0,0,0,
37.37689, 13:19:18.738,0,0,0,0,0,0,0,0,0,
37.40734, 13:19:18.770,0,0,0,0,0,0,0,0,0,
37.43843, 13:19:18.800,0,0,0,0,0,0,0,0,0,
37.48682, 13:19:18.855,0,0,0,0,0,0,0,0,0,
37.52796, 13:19:18.891,0,0,0,0,0,0,0,0,0,
37.55922, 13:19:18.921,0,0,0,0,0,0,0,0,0,
37.58912, 13:19:18.952,0,0,0,0,0,0,0,0,0,
37.62896, 13:19:18.991,0,0,0,0,0,0,0,0,0,
37.66227, 13:19:19.025,0,0,0,0,0,0,0,0,0,
37.69513, 13:19:19.057,0,0,0,0,0,0,0,0,0,
37.72705, 13:19:19.090,0,0,0,0,0,0,0,0,0,
37.75866, 13:19:19.120,0,0,0,0,0,0,0,0,0,
37.79771, 13:19:19.160,0,0,0,0,0,0,0,0,0,
37.83097, 13:19:19.195,0,0,0,0,0,0,0,0,0,
37.86633, 13:19:19.230,0,0,0,0,0,0,0,0,0,
37.89754, 13:19:19.260,0,0,0,0,0,0,0,0,0,
37.93131, 13:19:19.295,0,0,0,0,0,0,0,0,0,
37.97172, 13:19:19.335,0,0,0,0,0,0,0,0,0,
38.00417, 13:19:19.368,0,0,0,0,0,0,0,0,0,
38.03629, 13:19:19.399,0,0,0,0,0,0,0,0,0,
38.06724, 13:19:19.430,0,0,0,0,0,0,0,0,0,
38.10248, 13:19:19.465,0,0,0,0,0,0,0,0,0,
38.16438, 13:19:19.529,0,0,0,0,0,0,0,0,0,
38.21574, 13:19:19.581,0,0,0,0,0,0,0,0,0,
38.2527, 13:19:19.617,0,0,0,0,0,0,0,0,0,
38.29663, 13:19:19.660,0,0,0,0,0,0,0,0,0,
38.33078, 13:19:19.694,0,0,0,0,0,0,0,0,0,
38.36337, 13:19:19.725,0,0,0,0,0,0,0,0,0,
38.39449, 13:19:19.757,0,0,0,0,0,0,0,0,0,
38.43134, 13:19:19.795,0,0,0,0,0,0,0,0,0,
38.47318, 13:19:19.837,0,0,0,0,0,0,0,0,0,
38.50911, 13:19:19.872,0,0,0,0,0,0,0,0,0,
38.54129, 13:19:19.905,0,0,0,0,0,0,0,0,0,
38.57763, 13:19:19.940,0,0,0,0,0,0,0,0,0,
38.60953, 13:19:19.972,0,0,0,0,0,0,0,0,0,
38.65353, 13:19:20.016,0,0,0,0,0,0,0,0,0,
38.6907, 13:19:20.054,0,0,0,0,0,0,0,0,0,
38.72482, 13:19:20.088,0,0,0,0,0,0,0,0,0,
38.7735, 13:19:20.137,0,0,0,0,0,0,0,0,0,
38.82056, 13:19:20.184,0,0,0,0,0,0,0,0,0,
38.85605, 13:19:20.217,0,0,0,0,0,0,0,0,0,
38.88439, 13:19:20.248,0,0,0,0,0,0,0,0,0,
38.91648, 13:19:20.279,0,0,0,0,0,0,0,0,0,
38.94763, 13:19:20.310,0,0,0,0,0,0,0,0,0,
38.98966, 13:19:20.352,0,0,0,0,0,0,0,0,0,
39.0326, 13:19:20.397,0,0,0,0,0,0,0,0,0,
39.06754, 13:19:20.430,0,0,0,0,0,0,0,0,0,
39.09916, 13:19:20.461,0,0,0,0,0,0,0,0,0,
39.13927, 13:19:20.502,0,0,0,0,0,0,0,0,0,
39.17597, 13:19:20.538,0,0,0,0,0,0,0,0,0,
39.20685, 13:19:20.569,0,0,0,0,0,0,0,0,0,
39.24054, 13:19:20.603,0,0,0,0,0,0,0,0,0,
39.27225, 13:19:20.635,0,0,0,0,0,0,0,0,0,
39.32226, 13:19:20.687,0,0,0,0,0,0,0,0,0,
39.36933, 13:19:20.734,0,0,0,0,0,0,0,0,0,
39.40769, 13:19:20.771,0,0,0,0,0,0,0,0,0,
39.44618, 13:19:20.810,0,0,0,0,0,0,0,0,0,
39.4878, 13:19:20.851,0,0,0,0,0,0,0,0,0,
39.523, 13:19:20.887,0,0,0,0,0,0,0,0,0,
39.55425, 13:19:20.915,0,0,0,0,0,0,0,0,0,
39.5843, 13:19:20.947,0,0,0,0,0,0,0,0,0,
39.61765, 13:19:20.979,0,0,0,0,0,0,0,0,0,
39.6621, 13:19:21.026,0,0,0,0,0,0,0,0,0,
39.69719, 13:19:21.059,0,0,0,0,0,0,0,0,0,
39.72736, 13:19:21.090,0,0,0,0,0,0,0,0,0,
39.76011, 13:19:21.123,0,0,0,0,0,0,0,0,0,
39.80276, 13:19:21.166,0,0,0,0,0,0,0,0,0,
39.84419, 13:19:21.208,0,0,0,0,0,0,0,0,0,
39.88359, 13:19:21.247,0,0,0,0,0,0,0,0,0,
39.91832, 13:19:21.280,0,0,0,0,0,0,0,0,0,
39.94967, 13:19:21.314,0,0,0,0,0,0,0,0,0,
39.9819, 13:19:21.345,0,0,0,0,0,0,0,0,0,
40.02488, 13:19:21.388,0,0,0,0,0,0,0,0,0,
40.06218, 13:19:21.425,0,0,0,0,0,0,0,0,0,
40.0971, 13:19:21.459,0,0,0,0,0,0,0,0,0,
40.12973, 13:19:21.493,0,0,0,0,0,0,0,0,0,
40.16902, 13:19:21.532,0,0,0,0,0,0,0,0,0,
40.21222, 13:19:21.575,0,0,0,0,0,0,0,0,0,
40.25088, 13:19:21.613,0,0,0,0,0,0,0,0,0,
40.28231, 13:19:21.645,0,0,0,0,0,0,0,0,0,
40.31671, 13:19:21.678,0,0,0,0,0,0,0,0,0,
40.34751, 13:19:21.710,0,0,0,0,0,0,0,0,0,
40.39128, 13:19:21.755,0,0,0,0,0,0,0,0,0,
40.42752, 13:19:21.790,0,0,0,0,0,0,0,0,0,
40.46255, 13:19:21.826,0,0,0,0,0,0,0,0,0,
40.49957, 13:19:21.861,0,0,0,0,0,0,0,0,0,
40.56103, 13:19:21.926,0,0,0,0,0,0,0,0,0,
40.59824, 13:19:21.960,0,0,0,0,0,0,0,0,0,
40.62858, 13:19:21.991,0,0,0,0,0,0,0,0,0,
40.66123, 13:19:22.024,0,0,0,0,0,0,0,0,0,
40.70779, 13:19:22.071,0,0,0,0,0,0,0,0,0,
40.75198, 13:19:22.116,0,0,0,0,0,0,0,0,0,
40.78479, 13:19:22.148,0,0,0,0,0,0,0,0,0,
40.81621, 13:19:22.177,0,0,0,0,0,0,0,0,0,
40.85767, 13:19:22.220,0,0,0,0,0,0,0,0,0,
40.89151, 13:19:22.254,0,0,0,0,0,0,0,0,0,
40.92334, 13:19:22.286,0,0,0,0,0,0,0,0,0,
40.95935, 13:19:22.321,0,0,0,0,0,0,0,0,0,
40.99099, 13:19:22.354,0,0,0,0,0,0,0,0,0,
41.03478, 13:19:22.399,0,0,0,0,0,0,0,0,0,
41.07345, 13:19:22.436,0,0,0,0,0,0,0,0,0,
41.10456, 13:19:22.468,0,0,0,0,0,0,0,0,0,
41.16831, 13:19:22.533,0,0,0,0,0,0,0,0,0,
41.22532, 13:19:22.588,0,0,0,0,0,0,0,0,0,
41.26254, 13:19:22.625,0,0,0,0,0,0,0,0,0,
41.29383, 13:19:22.655,0,0,0,0,0,0,0,0,0,
41.3245, 13:19:22.688,0,0,0,0,0,0,0,0,0,
41.36803, 13:19:22.731,0,0,0,0,0,0,0,0,0,
41.40452, 13:19:22.768,0,0,0,0,0,0,0,0,0,
41.43762, 13:19:22.800,0,0,0,0,0,0,0,0,0,
41.46989, 13:19:22.833,0,0,0,0,0,0,0,0,0,
41.50019, 13:19:22.864,0,0,0,0,0,0,0,0,0,
41.54283, 13:19:22.906,0,0,0,0,0,0,0,0,0,
41.57902, 13:19:22.940,0,0,0,0,0,0,0,0,0,
41.61227, 13:19:22.976,0,0,0,0,0,0,0,0,0,
41.64403, 13:19:23.006,0,0,0,0,0,0,0,0,0,
41.67719, 13:19:23.039,0,0,0,0,0,0,0,0,0,
41.72192, 13:19:23.087,0,0,0,0,0,0,0,0,0,
41.76756, 13:19:23.132,0,0,0,0,0,0,0,0,0,
41.80467, 13:19:23.168,0,0,0,0,0,0,0,0,0,
41.84289, 13:19:23.207,0,0,0,0,0,0,0,0,0,
41.88231, 13:19:23.246,0,0,0,0,0,0,0,0,0,
41.91694, 13:19:23.279,0,0,0,0,0,0,0,0,0,
41.94757, 13:19:23.311,0,0,0,0,0,0,0,0,0,
41.98173, 13:19:23.345,0,0,0,0,0,0,0,0,0,
42.01244, 13:19:23.375,0,0,0,0,0,0,0,0,0,
42.05927, 13:19:23.422,0,0,0,0,0,0,0,0,0,
42.09255, 13:19:23.456,0,0,0,0,0,0,0,0,0,
42.12347, 13:19:23.487,0,0,0,0,0,0,0,0,0,
42.15421, 13:19:23.517,0,0,0,0,0,0,0,0,0,
42.18526, 13:19:23.547,0,0,0,0,0,0,0,0,0,
42.22729, 13:19:23.590,0,0,0,0,0,0,0,0,0,
42.26529, 13:19:23.628,0,0,0,0,0,0,0,0,0,
42.29641, 13:19:23.658,0,0,0,0,0,0,0,0,0,
42.32636, 13:19:23.689,0,0,0,0,0,0,0,0,0,
42.35849, 13:19:23.720,0,0,0,0,0,0,0,0,0,
42.40008, 13:19:23.764,0,0,0,0,0,0,0,0,0,
42.43925, 13:19:23.801,0,0,0,0,0,0,0,0,0,
42.47247, 13:19:23.836,0,0,0,0,0,0,0,0,0,
42.50323, 13:19:23.866,0,0,0,0,0,0,0,0,0,
42.53757, 13:19:23.900,0,0,0,0,0,0,0,0,0,
42.57874, 13:19:23.942,0,0,0,0,0,0,0,0,0,
42.61665, 13:19:23.980,0,0,0,0,0,0,0,0,0,
42.6747, 13:19:24.040,0,0,0,0,0,0,0,0,0,
42.71196, 13:19:24.076,0,0,0,0,0,0,0,0,0,
42.75591, 13:19:24.119,0,0,0,0,0,0,0,0,0,
42.79092, 13:19:24.154,0,0,0,0,0,0,0,0,0,
42.82164, 13:19:24.185,0,0,0,0,0,0,0,0,0,
42.85712, 13:19:24.220,0,0,0,0,0,0,0,0,0,
42.89205, 13:19:24.256,0,0,0,0,0,0,0,0,0,
42.95423, 13:19:24.319,0,0,0,0,0,0,0,0,0,
42.99586, 13:19:24.358,0,0,0,0,0,0,0,0,0,
43.02724, 13:19:24.391,0,0,0,0,0,0,0,0,0,
43.06234, 13:19:24.425,0,0,0,0,0,0,0,0,0,
43.10417, 13:19:24.467,0,0,0,0,0,0,0,0,0,
43.14216, 13:19:24.504,0,0,0,0,0,0,0,0,0,
43.17501, 13:19:24.537,0,0,0,0,0,0,0,0,0,
43.20679, 13:19:24.570,0,0,0,0,0,0,0,0,0,
43.23896, 13:19:24.601,0,0,0,0,0,0,0,0,0,
43.28085, 13:19:24.644,0,0,0,0,0,0,0,0,0,
43.31548, 13:19:24.678,0,0,0,0,0,0,0,0,0,
43.34958, 13:19:24.712,0,0,0,0,0,0,0,0,0,
43.38044, 13:19:24.744,0,0,0,0,0,0,0,0,0,
43.4124, 13:19:24.774,0,0,0,0,0,0,0,0,0,
43.46423, 13:19:24.828,0,0,0,0,0,0,0,0,0,
43.50007, 13:19:24.864,0,0,0,0,0,0,0,0,0,
43.53042, 13:19:24.892,0,0,0,0,0,0,0,0,0,
43.56314, 13:19:24.926,0,0,0,0,0,0,0,0,0,
43.60629, 13:19:24.969,0,0,0,0,0,0,0,0,0,
43.63926, 13:19:25.001,0,0,0,0,0,0,0,0,0,
43.66936, 13:19:25.032,0,0,0,0,0,0,0,0,0,
43.69949, 13:19:25.061,0,0,0,0,0,0,0,0,0,
43.74108, 13:19:25.105,0,0,0,0,0,0,0,0,0,
43.78494, 13:19:25.148,0,0,0,0,0,0,0,0,0,
43.82083, 13:19:25.184,0,0,0,0,0,0,0,0,0,
43.8505, 13:19:25.214,0,0,0,0,0,0,0,0,0,
43.88169, 13:19:25.245,0,0,0,0,0,0,0,0,0,
43.9133, 13:19:25.275,0,0,0,0,0,0,0,0,0,
43.95167, 13:19:25.315,0,0,0,0,0,0,0,0,0,
43.98885, 13:19:25.352,0,0,0,0,0,0,0,0,0,
44.02499, 13:19:25.389,0,0,0,0,0,0,0,0,0,
44.0617, 13:19:25.426,0,0,0,0,0,0,0,0,0,
44.1044, 13:19:25.468,0,0,0,0,0,0,0,0,0,
44.14674, 13:19:25.510,0,0,0,0,0,0,0,0,0,
44.18195, 13:19:25.545,0,0,0,0,0,0,0,0,0,
44.21912, 13:19:25.582,0,0,0,0,0,0,0,0,0,
44.25123, 13:19:25.615,0,0,0,0,0,0,0,0,0,
44.28102, 13:19:25.644,0,0,0,0,0,0,0,0,0,
44.32286, 13:19:25.686,0,0,0,0,0,0,0,0,0,
44.35717, 13:19:25.719,0,0,0,0,0,0,0,0,0,
44.38809, 13:19:25.751,0,0,0,0,0,0,0,0,0,
44.42123, 13:19:25.784,0,0,0,0,0,0,0,0,0,
44.45303, 13:19:25.815,0,0,0,0,0,0,0,0,0,
44.49466, 13:19:25.858,0,0,0,0,0,0,0,0,0,
44.53148, 13:19:25.896,0,0,0,0,0,0,0,0,0,
44.56303, 13:19:25.926,0,0,0,0,0,0,0,0,0,
44.59348, 13:19:25.956,0,0,0,0,0,0,0,0,0,
44.62765, 13:19:25.990,0,0,0,0,0,0,0,0,0,
44.68024, 13:19:26.044,0,0,0,0,0,0,0,0,0,
44.71507, 13:19:26.078,0,0,0,0,0,0,0,0,0,
44.74656, 13:19:26.110,0,0,0,0,0,0,0,0,0,
44.77825, 13:19:26.141,0,0,0,0,0,0,0,0,0,
44.81881, 13:19:26.183,0,0,0,0,0,0,0,0,0,
44.85525, 13:19:26.218,0,0,0,0,0,0,0,0,0,
44.88731, 13:19:26.250,0,0,0,0,0,0,0,0,0,
44.91882, 13:19:26.281,0,0,0,0,0,0,0,0,0,
44.95203, 13:19:26.314,0,0,0,0,0,0,0,0,0,
45.0002, 13:19:26.365,0,0,0,0,0,0,0,0,0,
45.03678, 13:19:26.400,0,0,0,0,0,0,0,0,0,
45.07182, 13:19:26.435,0,0,0,0,0,0,0,0,0,
45.10281, 13:19:26.465,0,0,0,0,0,0,0,0,0,
45.14325, 13:19:26.506,0,0,0,0,0,0,0,0,0,
45.18204, 13:19:26.546,0,0,0,0,0,0,0,0,0,
45.21815, 13:19:26.582,0,0,0,0,0,0,0,0,0,
45.26108, 13:19:26.626,0,0,0,0,0,0,0,0,0,
45.31379, 13:19:26.677,0,0,0,0,0,0,0,0,0,
45.37441, 13:19:26.738,0,0,0,0,0,0,0,0,0,
45.40829, 13:19:26.772,0,0,0,0,0,0,0,0,0,
45.44228, 13:19:26.806,0,0,0,0,0,0,0,0,0,
45.48429, 13:19:26.847,0,0,0,0,0,0,0,0,0,
45.52058, 13:19:26.884,0,0,0,0,0,0,0,0,0,
45.55367, 13:19:26.916,0,0,0,0,0,0,0,0,0,
45.59113, 13:19:26.954,0,0,0,0,0,0,0,0,0,
45.62254, 13:19:26.986,0,0,0,0,0,0,0,0,0,
45.66347, 13:19:27.027,0,0,0,0,0,0,0,0,0,
45.69646, 13:19:27.059,0,0,0,0,0,0,0,0,0,
45.73014, 13:19:27.093,0,0,0,0,0,0,0,0,0,
45.76284, 13:19:27.126,0,0,0,0,0,0,0,0,0,
45.79511, 13:19:27.157,0,0,0,0,0,0,0,0,0,
45.83786, 13:19:27.200,0,0,0,0,0,0,0,0,0,
45.87113, 13:19:27.235,0,0,0,0,0,0,0,0,0,
45.9035, 13:19:27.267,0,0,0,0,0,0,0,0,0,
45.93663, 13:19:27.299,0,0,0,0,0,0,0,0,0,
45.96758, 13:19:27.330,0,0,0,0,0,0,0,0,0,
46.00903, 13:19:27.372,0,0,0,0,0,0,0,0,0,
46.04928, 13:19:27.413,0,0,0,0,0,0,0,0,0,
46.08194, 13:19:27.445,0,0,0,0,0,0,0,0,0,
46.11337, 13:19:27.475,0,0,0,0,0,0,0,0,0,
46.14644, 13:19:27.509,0,0,0,0,0,0,0,0,0,
46.18674, 13:19:27.551,0,0,0,0,0,0,0,0,0,
46.22181, 13:19:27.585,0,0,0,0,0,0,0,0,0,
46.25342, 13:19:27.616,0,0,0,0,0,0,0,0,0,
46.28356, 13:19:27.647,0,0,0,0,0,0,0,0,0,
46.31681, 13:19:27.680,0,0,0,0,0,0,0,0,0,
46.40381, 13:19:27.770,0,0,0,0,0,0,0,0,0,
46.44438, 13:19:27.808,0,0,0,0,0,0,0,0,0,
46.47962, 13:19:27.842,0,0,0,0,0,0,0,0,0,
46.52411, 13:19:27.888,0,0,0,0,0,0,0,0,0,
46.56294, 13:19:27.926,0,0,0,0,0,0,0,0,0,
46.60571, 13:19:27.969,0,0,0,0,0,0,0,0,0,
46.64108, 13:19:28.005,0,0,0,0,0,0,0,0,0,
46.68608, 13:19:28.049,0,0,0,0,0,0,0,0,0,
46.72553, 13:19:28.088,0,0,0,0,0,0,0,0,0,
46.76365, 13:19:28.127,0,0,0,0,0,0,0,0,0,
46.801, 13:19:28.164,0,0,0,0,0,0,0,0,0,
46.84764, 13:19:28.210,0,0,0,0,0,0,0,0,0,
46.88362, 13:19:28.247,0,0,0,0,0,0,0,0,0,
46.91971, 13:19:28.283,0,0,0,0,0,0,0,0,0,
46.95319, 13:19:28.316,0,0,0,0,0,0,0,0,0,
47.00366, 13:19:28.368,0,0,0,0,0,0,0,0,0,
47.0412, 13:19:28.405,0,0,0,0,0,0,0,0,0,
47.07603, 13:19:28.438,0,0,0,0,0,0,0,0,0,
47.10795, 13:19:28.471,0,0,0,0,0,0,0,0,0,
47.15315, 13:19:28.516,0,0,0,0,0,0,0,0,0,
47.19439, 13:19:28.557,0,0,0,0,0,0,0,0,0,
47.22941, 13:19:28.593,0,0,0,0,0,0,0,0,0,
47.26134, 13:19:28.625,0,0,0,0,0,0,0,0,0,
47.30363, 13:19:28.667,0,0,0,0,0,0,0,0,0,
47.3391, 13:19:28.701,0,0,0,0,0,0,0,0,0,
47.36964, 13:19:28.732,0,0,0,0,0,0,0,0,0,
47.40371, 13:19:28.766,0,0,0,0,0,0,0,0,0,
47.43945, 13:19:28.801,0,0,0,0,0,0,0,0,0,
47.48037, 13:19:28.845,0,0,0,0,0,0,0,0,0,
47.51936, 13:19:28.883,0,0,0,0,0,0,0,0,0,
47.55554, 13:19:28.920,0,0,0,0,0,0,0,0,0,
47.59474, 13:19:28.958,0,0,0,0,0,0,0,0,0,
47.64041, 13:19:29.004,0,0,0,0,0,0,0,0,0,
47.6736, 13:19:29.037,0,0,0,0,0,0,0,0,0,
47.70921, 13:19:29.072,0,0,0,0,0,0,0,0,0,
47.7463, 13:19:29.108,0,0,0,0,0,0,0,0,0,
47.78981, 13:19:29.152,0,0,0,0,0,0,0,0,0,
47.82338, 13:19:29.186,0,0,0,0,0,0,0,0,0,
47.85622, 13:19:29.218,0,0,0,0,0,0,0,0,0,
47.88668, 13:19:29.250,0,0,0,0,0,0,0,0,0,
47.92012, 13:19:29.283,0,0,0,0,0,0,0,0,0,
47.9608, 13:19:29.325,0,0,0,0,0,0,0,0,0,
47.99627, 13:19:29.359,0,0,0,0,0,0,0,0,0,
48.02691, 13:19:29.390,0,0,0,0,0,0,0,0,0,
48.06427, 13:19:29.426,0,0,0,0,0,0,0,0,0,
48.09531, 13:19:29.457,0,0,0,0,0,0,0,0,0,
48.13555, 13:19:29.498,0,0,0,0,0,0,0,0,0,
48.16961, 13:19:29.532,0,0,0,0,0,0,0,0,0,
48.1997, 13:19:29.562,0,0,0,0,0,0,0,0,0,
48.23123, 13:19:29.594,0,0,0,0,0,0,0,0,0,
48.2659, 13:19:29.628,0,0,0,0,0,0,0,0,0,
48.31234, 13:19:29.676,0,0,0,0,0,0,0,0,0,
48.34593, 13:19:29.709,0,0,0,0,0,0,0,0,0,
48.37716, 13:19:29.740,0,0,0,0,0,0,0,0,0,
48.40683, 13:19:29.769,0,0,0,0,0,0,0,0,0,
48.43869, 13:19:29.800,0,0,0,0,0,0,0,0,0,
48.48333, 13:19:29.847,0,0,0,0,0,0,0,0,0,
48.52244, 13:19:29.886,0,0,0,0,0,0,0,0,0,
48.55448, 13:19:29.917,0,0,0,0,0,0,0,0,0,
48.58558, 13:19:29.949,0,0,0,0,0,0,0,0,0,
48.61848, 13:19:29.980,0,0,0,0,0,0,0,0,0,
48.66196, 13:19:30.026,0,0,0,0,0,0,0,0,0,
48.70713, 13:19:30.071,0,0,0,0,0,0,0,0,0,
48.75287, 13:19:30.116,0,0,0,0,0,0,0,0,0,
48.78734, 13:19:30.150,0,0,0,0,0,0,0,0,0,
48.82989, 13:19:30.193,0,0,0,0,0,0,0,0,0,
48.86434, 13:19:30.228,0,0,0,0,0,0,0,0,0,
48.90127, 13:19:30.264,0,0,0,0,0,0,0,0,0,
48.93217, 13:19:30.295,0,0,0,0,0,0,0,0,0,
48.96706, 13:19:30.330,0,0,0,0,0,0,0,0,0,
49.00906, 13:19:30.372,0,0,0,0,0,0,0,0,0,
49.04416, 13:19:30.408,0,0,0,0,0,0,0,0,0,
49.07595, 13:19:30.437,0,0,0,0,0,0,0,0,0,
49.10959, 13:19:30.472,0,0,0,0,0,0,0,0,0,
49.14083, 13:19:30.505,0,0,0,0,0,0,0,0,0,
49.18553, 13:19:30.549,0,0,0,0,0,0,0,0,0,
49.22032, 13:19:30.583,0,0,0,0,0,0,0,0,0,
49.25234, 13:19:30.615,0,0,0,0,0,0,0,0,0,
49.2858, 13:19:30.649,0,0,0,0,0,0,0,0,0,
49.31978, 13:19:30.683,0,0,0,0,0,0,0,0,0,
49.36034, 13:19:30.725,0,0,0,0,0,0,0,0,0,
49.39714, 13:19:30.758,0,0,0,0,0,0,0,0,0,
49.4272, 13:19:30.791,0,0,0,0,0,0,0,0,0,
49.45814, 13:19:30.820,0,0,0,0,0,0,0,0,0,
49.48885, 13:19:30.852,0,0,0,0,0,0,0,0,0,
49.53554, 13:19:30.899,0,0,0,0,0,0,0,0,0,
49.5733, 13:19:30.936,0,0,0,0,0,0,0,0,0,
49.60873, 13:19:30.972,0,0,0,0,0,0,0,0,0,
49.6422, 13:19:31.005,0,0,0,0,0,0,0,0,0,
49.68231, 13:19:31.045,0,0,0,0,0,0,0,0,0,
49.71518, 13:19:31.077,0,0,0,0,0,0,0,0,0,
49.75391, 13:19:31.117,0,0,0,0,0,0,0,0,0,
49.7881, 13:19:31.150,0,0,0,0,0,0,0,0,0,
49.82152, 13:19:31.186,0,0,0,0,0,0,0,0,0,
49.87186, 13:19:31.237,0,0,0,0,0,0,0,0,0,
49.92431, 13:19:31.288,0,0,0,0,0,0,0,0,0,
49.96105, 13:19:31.324,0,0,0,0,0,0,0,0,0,
49.99407, 13:19:31.357,0,0,0,0,0,0,0,0,0,
50.03825, 13:19:31.402,0,0,0,0,0,0,0,0,0,
50.07315, 13:19:31.436,0,0,0,0,0,0,0,0,0,
50.10412, 13:19:31.468,0,0,0,0,0,0,0,0,0,
50.13799, 13:19:31.500,0,0,0,0,0,0,0,0,0,
50.17221, 13:19:31.534,0,0,0,0,0,0,0,0,0,
50.21927, 13:19:31.583,0,0,0,0,0,0,0,0,0,
50.25654, 13:19:31.620,0,0,0,0,0,0,0,0,0,
50.28736, 13:19:31.650,0,0,0,0,0,0,0,0,0,
50.31807, 13:19:31.680,0,0,0,0,0,0,0,0,0,
50.34822, 13:19:31.711,0,0,0,0,0,0,0,0,0,
50.40326, 13:19:31.767,0,0,0,0,0,0,0,0,0,
50.43736, 13:19:31.800,0,0,0,0,0,0,0,0,0,
50.46822, 13:19:31.831,0,0,0,0,0,0,0,0,0,
50.49891, 13:19:31.861,0,0,0,0,0,0,0,0,0,
50.5412, 13:19:31.904,0,0,0,0,0,0,0,0,0,
50.57665, 13:19:31.938,0,0,0,0,0,0,0,0,0,
50.61182, 13:19:31.975,0,0,0,0,0,0,0,0,0,
50.64756, 13:19:32.010,0,0,0,0,0,0,0,0,0,
50.68341, 13:19:32.047,0,0,0,0,0,0,0,0,0,
50.72733, 13:19:32.090,0,0,0,0,0,0,0,0,0,
50.76708, 13:19:32.130,0,0,0,0,0,0,0,0,0,
50.79737, 13:19:32.160,0,0,0,0,0,0,0,0,0,
50.83352, 13:19:32.198,0,0,0,0,0,0,0,0,0,
50.88779, 13:19:32.252,0,0,0,0,0,0,0,0,0,
50.92788, 13:19:32.292,0,0,0,0,0,0,0,0,0,
50.9622, 13:19:32.325,0,0,0,0,0,0,0,0,0,
51.00052, 13:19:32.365,0,0,0,0,0,0,0,0,0,
51.05952, 13:19:32.427,0,0,0,0,0,0,0,0,0,
51.10532, 13:19:32.470,0,0,0,0,0,0,0,0,0,
51.13661, 13:19:32.499,0,0,0,0,0,0,0,0,0,
51.16807, 13:19:32.530,0,0,0,0,0,0,0,0,0,
51.21458, 13:19:32.578,0,0,0,0,0,0,0,0,0,
51.2561, 13:19:32.620,0,0,0,0,0,0,0,0,0,
51.29009, 13:19:32.654,0,0,0,0,0,0,0,0,0,
51.3213, 13:19:32.685,0,0,0,0,0,0,0,0,0,
51.36437, 13:19:32.728,0,0,0,0,0,0,0,0,0,
51.40212, 13:19:32.766,0,0,0,0,0,0,0,0,0,
51.43348, 13:19:32.796,0,0,0,0,0,0,0,0,0,
51.46567, 13:19:32.829,0,0,0,0,0,0,0,0,0,
51.49804, 13:19:32.860,0,0,0,0,0,0,0,0,0,
51.54192, 13:19:32.906,0,0,0,0,0,0,0,0,0,
51.57814, 13:19:32.941,0,0,0,0,0,0,0,0,0,
51.60806, 13:19:32.971,0,0,0,0,0,0,0,0,0,
51.63823, 13:19:33.000,0,0,0,0,0,0,0,0,0,
51.67223, 13:19:33.035,0,0,0,0,0,0,0,0,0,
51.71531, 13:19:33.078,0,0,0,0,0,0,0,0,0,
51.75315, 13:19:33.116,0,0,0,0,0,0,0,0,0,
51.78432, 13:19:33.147,0,0,0,0,0,0,0,0,0,
51.81639, 13:19:33.178,0,0,0,0,0,0,0,0,0,
51.84722, 13:19:33.209,0,0,0,0,0,0,0,0,0,
51.89167, 13:19:33.255,0,0,0,0,0,0,0,0,0,
51.92696, 13:19:33.292,0,0,0,0,0,0,0,0,0,
51.96132, 13:19:33.325,0,0,0,0,0,0,0,0,0,
51.99951, 13:19:33.361,0,0,0,0,0,0,0,0,0,
52.04293, 13:19:33.408,0,0,0,0,0,0,0,0,0,
52.07986, 13:19:33.442,0,0,0,0,0,0,0,0,0,
52.11376, 13:19:33.477,0,0,0,0,0,0,0,0,0,
52.1449, 13:19:33.507,0,0,0,0,0,0,0,0,0,
52.18092, 13:19:33.544,0,0,0,0,0,0,0,0,0,
52.23253, 13:19:33.601,0,0,0,0,0,0,0,0,0,
52.27706, 13:19:33.640,0,0,0,0,0,0,0,0,0,
52.31026, 13:19:33.673,0,0,0,0,0,0,0,0,0,
52.34309, 13:19:33.706,0,0,0,0,0,0,0,0,0,
52.38386, 13:19:33.747,0,0,0,0,0,0,0,0,0,
52.41985, 13:19:33.782,0,0,0,0,0,0,0,0,0,
52.45173, 13:19:33.816,0,0,0,0,0,0,0,0,0,
52.5351, 13:19:33.900,0,0,0,0,0,0,0,0,0,
52.58695, 13:19:33.951,0,0,0,0,0,0,0,0,0,
52.62514, 13:19:33.988,0,0,0,0,0,0,0,0,0,
52.66167, 13:19:34.025,0,0,0,0,0,0,0,0,0,
52.70158, 13:19:34.066,0,0,0,0,0,0,0,0,0,
52.7473, 13:19:34.111,0,0,0,0,0,0,0,0,0,
52.78522, 13:19:34.149,0,0,0,0,0,0,0,0,0,
52.81867, 13:19:34.181,0,0,0,0,0,0,0,0,0,
52.85006, 13:19:34.213,0,0,0,0,0,0,0,0,0,
52.88785, 13:19:34.251,0,0,0,0,0,0,0,0,0,
52.93888, 13:19:34.301,0,0,0,0,0,0,0,0,0,
52.97384, 13:19:34.337,0,0,0,0,0,0,0,0,0,
53.0087, 13:19:34.371,0,0,0,0,0,0,0,0,0,
53.04218, 13:19:34.406,0,0,0,0,0,0,0,0,0,
53.08674, 13:19:34.449,0,0,0,0,0,0,0,0,0,
53.12025, 13:19:34.483,0,0,0,0,0,0,0,0,0,
53.15032, 13:19:34.512,0,0,0,0,0,0,0,0,0,
53.18082, 13:19:34.543,0,0,0,0,0,0,0,0,0,
53.21454, 13:19:34.577,0,0,0,0,0,0,0,0,0,
53.26506, 13:19:34.630,0,0,0,0,0,0,0,0,0,
53.30134, 13:19:34.666,0,0,0,0,0,0,0,0,0,
53.3392, 13:19:34.703,0,0,0,0,0,0,0,0,0,
53.37583, 13:19:34.740,0,0,0,0,0,0,0,0,0,
53.43521, 13:19:34.799,0,0,0,0,0,0,0,0,0,
53.47319, 13:19:34.836,0,0,0,0,0,0,0,0,0,
53.50369, 13:19:34.866,0,0,0,0,0,0,0,0,0,
53.53391, 13:19:34.896,0,0,0,0,0,0,0,0,0,
53.58522, 13:19:34.949,0,0,0,0,0,0,0,0,0,
53.62066, 13:19:34.985,0,0,0,0,0,0,0,0,0,
53.653, 13:19:35.015,0,0,0,0,0,0,0,0,0,
53.68739, 13:19:35.051,0,0,0,0,0,0,0,0,0,
53.72985, 13:19:35.093,0,0,0,0,0,0,0,0,0,
53.76546, 13:19:35.128,0,0,0,0,0,0,0,0,0,
53.79702, 13:19:35.159,0,0,0,0,0,0,0,0,0,
53.82671, 13:19:35.189,0,0,0,0,0,0,0,0,0,
53.8587, 13:19:35.220,0,0,0,0,0,0,0,0,0,
53.91, 13:19:35.274,0,0,0,0,0,0,0,0,0,
53.94572, 13:19:35.309,0,0,0,0,0,0,0,0,0,
53.97658, 13:19:35.338,0,0,0,0,0,0,0,0,0,
54.0069, 13:19:35.369,0,0,0,0,0,0,0,0,0,
54.03867, 13:19:35.401,0,0,0,0,0,0,0,0,0,
54.08297, 13:19:35.447,0,0,0,0,0,0,0,0,0,
54.1203, 13:19:35.484,0,0,0,0,0,0,0,0,0,
54.15196, 13:19:35.515,0,0,0,0,0,0,0,0,0,
54.18284, 13:19:35.546,0,0,0,0,0,0,0,0,0,
54.21355, 13:19:35.576,0,0,0,0,0,0,0,0,0,
54.25437, 13:19:35.617,0,0,0,0,0,0,0,0,0,
54.28903, 13:19:35.652,0,0,0,0,0,0,0,0,0,
54.32195, 13:19:35.686,0,0,0,0,0,0,0,0,0,
54.35209, 13:19:35.715,0,0,0,0,0,0,0,0,0,
54.38297, 13:19:35.746,0,0,0,0,0,0,0,0,0,
54.42749, 13:19:35.791,0,0,0,0,0,0,0,0,0,
54.46261, 13:19:35.826,0,0,0,0,0,0,0,0,0,
54.4966, 13:19:35.859,0,0,0,0,0,0,0,0,0,
54.53632, 13:19:35.900,0,0,0,0,0,0,0,0,0,
54.59341, 13:19:35.958,0,0,0,0,0,0,0,0,0,
54.63193, 13:19:35.996,0,0,0,0,0,0,0,0,0,
54.66323, 13:19:36.026,0,0,0,0,0,0,0,0,0,
54.69518, 13:19:36.058,0,0,0,0,0,0,0,0,0,
54.7362, 13:19:36.103,0,0,0,0,0,0,0,0,0,
54.78713, 13:19:36.157,0,0,0,0,0,0,0,0,0,
54.83705, 13:19:36.204,0,0,0,0,0,0,0,0,0,
54.88235, 13:19:36.250,0,0,0,0,0,0,0,0,0,
54.94162, 13:19:36.306,0,0,0,0,0,0,0,0,0,
54.97813, 13:19:36.340,0,0,0,0,0,0,0,0,0,
55.0092, 13:19:36.373,0,0,0,0,0,0,0,0,0,
55.04282, 13:19:36.406,0,0,0,0,0,0,0,0,0,
55.0839, 13:19:36.447,0,0,0,0,0,0,0,0,0,
55.12044, 13:19:36.484,0,0,0,0,0,0,0,0,0,
55.15302, 13:19:36.515,0,0,0,0,0,0,0,0,0,
55.18629, 13:19:36.549,0,0,0,0,0,0,0,0,0,
55.21791, 13:19:36.579,0,0,0,0,0,0,0,0,0,
55.25939, 13:19:36.622,0,0,0,0,0,0,0,0,0,
55.29367, 13:19:36.656,0,0,0,0,0,0,0,0,0,
55.32487, 13:19:36.687,0,0,0,0,0,0,0,0,0,
55.35627, 13:19:36.719,0,0,0,0,0,0,0,0,0,
55.39273, 13:19:36.755,0,0,0,0,0,0,0,0,0,
55.43547, 13:19:36.799,0,0,0,0,0,0,0,0,0,
55.47037, 13:19:36.833,0,0,0,0,0,0,0,0,0,
55.50113, 13:19:36.864,0,0,0,0,0,0,0,0,0,
55.53199, 13:19:36.893,0,0,0,0,0,0,0,0,0,
55.56256, 13:19:36.926,0,0,0,0,0,0,0,0,0,
55.61282, 13:19:36.975,0,0,0,0,0,0,0,0,0,
55.64994, 13:19:37.015,0,0,0,0,0,0,0,0,0,
55.68627, 13:19:37.051,0,0,0,0,0,0,0,0,0,
55.72304, 13:19:37.088,0,0,0,0,0,0,0,0,0,
55.77057, 13:19:37.134,0,0,0,0,0,0,0,0,0,
55.81008, 13:19:37.173,0,0,0,0,0,0,0,0,0,
55.84147, 13:19:37.204,0,0,0,0,0,0,0,0,0,
55.87245, 13:19:37.234,0,0,0,0,0,0,0,0,0,
55.91081, 13:19:37.274,0,0,0,0,0,0,0,0,0,
55.95589, 13:19:37.319,0,0,0,0,0,0,0,0,0,
55.98676, 13:19:37.349,0,0,0,0,0,0,0,0,0,
56.02219, 13:19:37.384,0,0,0,0,0,0,0,0,0,
56.05635, 13:19:37.419,0,0,0,0,0,0,0,0,0,
56.09044, 13:19:37.454,0,0,0,0,0,0,0,0,0,
56.13215, 13:19:37.495,0,0,0,0,0,0,0,0,0,
56.16235, 13:19:37.525,0,0,0,0,0,0,0,0,0,
56.19378, 13:19:37.556,0,0,0,0,0,0,0,0,0,
56.23081, 13:19:37.594,0,0,0,0,0,0,0,0,0,
56.26763, 13:19:37.631,0,0,0,0,0,0,0,0,0,
56.31097, 13:19:37.674,0,0,0,0,0,0,0,0,0,
56.34221, 13:19:37.704,0,0,0,0,0,0,0,0,0,
56.37276, 13:19:37.735,0,0,0,0,0,0,0,0,0,
56.40354, 13:19:37.766,0,0,0,0,0,0,0,0,0,
56.44077, 13:19:37.804,0,0,0,0,0,0,0,0,0,
56.48208, 13:19:37.846,0,0,0,0,0,0,0,0,0,
56.514, 13:19:37.876,0,0,0,0,0,0,0,0,0,
56.54535, 13:19:37.909,0,0,0,0,0,0,0,0,0,
56.57807, 13:19:37.940,0,0,0,0,0,0,0,0,0,
56.61201, 13:19:37.975,0,0,0,0,0,0,0,0,0,
56.65894, 13:19:38.023,0,0,0,0,0,0,0,0,0,
56.69068, 13:19:38.054,0,0,0,0,0,0,0,0,0,
56.7212, 13:19:38.084,0,0,0,0,0,0,0,0,0,
56.7545, 13:19:38.116,0,0,0,0,0,0,0,0,0,
56.79961, 13:19:38.164,0,0,0,0,0,0,0,0,0,
56.84816, 13:19:38.213,0,0,0,0,0,0,0,0,0,
56.88886, 13:19:38.254,0,0,0,0,0,0,0,0,0,
56.92926, 13:19:38.292,0,0,0,0,0,0,0,0,0,
56.96659, 13:19:38.330,0,0,0,0,0,0,0,0,0,
57.00926, 13:19:38.373,0,0,0,0,0,0,0,0,0,
57.04462, 13:19:38.408,0,0,0,0,0,0,0,0,0,
57.07779, 13:19:38.440,0,0,0,0,0,0,0,0,0,
57.11273, 13:19:38.475,0,0,0,0,0,0,0,0,0,
57.15026, 13:19:38.514,0,0,0,0,0,0,0,0,0,
57.19159, 13:19:38.554,0,0,0,0,0,0,0,0,0,
57.22333, 13:19:38.586,0,0,0,0,0,0,0,0,0,
57.25404, 13:19:38.616,0,0,0,0,0,0,0,0,0,
57.28494, 13:19:38.647,0,0,0,0,0,0,0,0,0,
57.32251, 13:19:38.685,0,0,0,0,0,0,0,0,0,
57.36327, 13:19:38.727,0,0,0,0,0,0,0,0,0,
57.39488, 13:19:38.756,0,0,0,0,0,0,0,0,0,
57.42437, 13:19:38.788,0,0,0,0,0,0,0,0,0,
57.45723, 13:19:38.827,0,0,0,0,0,0,0,0,0,
57.49887, 13:19:38.863,0,0,0,0,0,0,0,0,0,
57.54578, 13:19:38.909,0,0,0,0,0,0,0,0,0,
57.57835, 13:19:38.940,0,0,0,0,0,0,0,0,0,
57.6079, 13:19:38.971,0,0,0,0,0,0,0,0,0,
57.64991, 13:19:39.013,0,0,0,0,0,0,0,0,0,
57.70324, 13:19:39.068,0,0,0,0,0,0,0,0,0,
57.74378, 13:19:39.108,0,0,0,0,0,0,0,0,0,
57.7815, 13:19:39.144,0,0,0,0,0,0,0,0,0,
57.81699, 13:19:39.179,0,0,0,0,0,0,0,0,0,
57.85721, 13:19:39.220,0,0,0,0,0,0,0,0,0,
57.89127, 13:19:39.255,0,0,0,0,0,0,0,0,0,
57.92954, 13:19:39.293,0,0,0,0,0,0,0,0,0,
57.96765, 13:19:39.333,0,0,0,0,0,0,0,0,0,
58.02581, 13:19:39.391,0,0,0,0,0,0,0,0,0,
58.06982, 13:19:39.435,0,0,0,0,0,0,0,0,0,
58.10792, 13:19:39.471,0,0,0,0,0,0,0,0,0,
58.14109, 13:19:39.504,0,0,0,0,0,0,0,0,0,
58.18444, 13:19:39.548,0,0,0,0,0,0,0,0,0,
58.2236, 13:19:39.586,0,0,0,0,0,0,0,0,0,
58.26489, 13:19:39.628,0,0,0,0,0,0,0,0,0,
58.30637, 13:19:39.669,0,0,0,0,0,0,0,0,0,
58.35955, 13:19:39.724,0,0,0,0,0,0,0,0,0,
58.40195, 13:19:39.766,0,0,0,0,0,0,0,0,0,
58.44109, 13:19:39.805,0,0,0,0,0,0,0,0,0,
58.48436, 13:19:39.848,0,0,0,0,0,0,0,0,0,
58.53838, 13:19:39.901,0,0,0,0,0,0,0,0,0,
58.57647, 13:19:39.939,0,0,0,0,0,0,0,0,0,
58.62213, 13:19:39.986,0,0,0,0,0,0,0,0,0,
58.66359, 13:19:40.027,0,0,0,0,0,0,0,0,0,
58.71492, 13:19:40.077,0,0,0,0,0,0,0,0,0,
58.75419, 13:19:40.117,0,0,0,0,0,0,0,0,0,
58.79733, 13:19:40.160,0,0,0,0,0,0,0,0,0,
58.84227, 13:19:40.206,0,0,0,0,0,0,0,0,0,
58.8943, 13:19:40.258,0,0,0,0,0,0,0,0,0,
58.9327, 13:19:40.297,0,0,0,0,0,0,0,0,0,
58.97774, 13:19:40.341,0,0,0,0,0,0,0,0,0,
59.01807, 13:19:40.383,0,0,0,0,0,0,0,0,0,
59.0749, 13:19:40.440,0,0,0,0,0,0,0,0,0,
59.1113, 13:19:40.473,0,0,0,0,0,0,0,0,0,
59.15212, 13:19:40.516,0,0,0,0,0,0,0,0,0,
59.19869, 13:19:40.562,0,0,0,0,0,0,0,0,0,
59.25604, 13:19:40.621,0,0,0,0,0,0,0,0,0,
59.2999, 13:19:40.664,0,0,0,0,0,0,0,0,0,
59.33218, 13:19:40.695,0,0,0,0,0,0,0,0,0,
59.37335, 13:19:40.736,0,0,0,0,0,0,0,0,0,
59.42767, 13:19:40.792,0,0,0,0,0,0,0,0,0,
59.46521, 13:19:40.827,0,0,0,0,0,0,0,0,0,
59.51115, 13:19:40.874,0,0,0,0,0,0,0,0,0,
59.55286, 13:19:40.916,0,0,0,0,0,0,0,0,0,
59.60528, 13:19:40.969,0,0,0,0,0,0,0,0,0,
59.6435, 13:19:41.008,0,0,0,0,0,0,0,0,0,
59.68658, 13:19:41.050,0,0,0,0,0,0,0,0,0,
59.73129, 13:19:41.095,0,0,0,0,0,0,0,0,0,
59.78381, 13:19:41.149,0,0,0,0,0,0,0,0,0,
59.82423, 13:19:41.187,0,0,0,0,0,0,0,0,0,
59.86433, 13:19:41.227,0,0,0,0,0,0,0,0,0,
59.90682, 13:19:41.269,0,0,0,0,0,0,0,0,0,
59.96161, 13:19:41.326,0,0,0,0,0,0,0,0,0,
59.99963, 13:19:41.361,0,0,0,0,0,0,0,0,0,
60.04182, 13:19:41.406,0,0,0,0,0,0,0,0,0,
60.08389, 13:19:41.447,0,0,0,0,0,0,0,0,0,
60.1402, 13:19:41.504,0,0,0,0,0,0,0,0,0,
60.18222, 13:19:41.546,0,0,0,0,0,0,0,0,0,
60.22168, 13:19:41.585,0,0,0,0,0,0,0,0,0,
60.26364, 13:19:41.626,0,0,0,0,0,0,0,0,0,
60.321, 13:19:41.688,0,0,0,0,0,0,0,0,0,
60.37885, 13:19:41.743,0,0,0,0,0,0,0,0,0,
60.42178, 13:19:41.785,0,0,0,0,0,0,0,0,0,
60.47654, 13:19:41.839,0,0,0,0,0,0,0,0,0,
60.50917, 13:19:41.873,0,0,0,0,0,0,0,0,0,
60.54113, 13:19:41.904,0,0,0,0,0,0,0,0,0,
60.57228, 13:19:41.935,0,0,0,0,0,0,0,0,0,
60.6272, 13:19:41.991,0,0,0,0,0,0,0,0,0,
60.66841, 13:19:42.031,0,0,0,0,0,0,0,0,0,
60.70904, 13:19:42.071,0,0,0,0,0,0,0,0,0,
60.75102, 13:19:42.115,0,0,0,0,0,0,0,0,0,
60.80701, 13:19:42.171,0,0,0,0,0,0,0,0,0,
60.84383, 13:19:42.207,0,0,0,0,0,0,0,0,0,
60.88845, 13:19:42.252,0,0,0,0,0,0,0,0,0,
60.92965, 13:19:42.293,0,0,0,0,0,0,0,0,0,
60.98491, 13:19:42.349,0,0,0,0,0,0,0,0,0,
61.02103, 13:19:42.384,0,0,0,0,0,0,0,0,0,
61.06575, 13:19:42.429,0,0,0,0,0,0,0,0,0,
61.1097, 13:19:42.473,0,0,0,0,0,0,0,0,0,
61.16191, 13:19:42.527,0,0,0,0,0,0,0,0,0,
61.20083, 13:19:42.564,0,0,0,0,0,0,0,0,0,
61.24171, 13:19:42.605,0,0,0,0,0,0,0,0,0,
61.28576, 13:19:42.650,0,0,0,0,0,0,0,0,0,
61.34158, 13:19:42.706,0,0,0,0,0,0,0,0,0,
61.37836, 13:19:42.740,0,0,0,0,0,0,0,0,0,
61.42003, 13:19:42.783,0,0,0,0,0,0,0,0,0,
61.46559, 13:19:42.830,0,0,0,0,0,0,0,0,0,
61.52657, 13:19:42.892,0,0,0,0,0,0,0,0,0,
61.56986, 13:19:42.933,0,0,0,0,0,0,0,0,0,
61.60357, 13:19:42.967,0,0,0,0,0,0,0,0,0,
61.63995, 13:19:43.002,0,0,0,0,0,0,0,0,0,
61.6963, 13:19:43.061,0,0,0,0,0,0,0,0,0,
61.73228, 13:19:43.097,0,0,0,0,0,0,0,0,0,
61.77772, 13:19:43.140,0,0,0,0,0,0,0,0,0,
61.82204, 13:19:43.186,0,0,0,0,0,0,0,0,0,
61.87514, 13:19:43.239,0,0,0,0,0,0,0,0,0,
61.91312, 13:19:43.276,0,0,0,0,0,0,0,0,0,
61.95401, 13:19:43.317,0,0,0,0,0,0,0,0,0,
61.999, 13:19:43.363,0,0,0,0,0,0,0,0,0,
62.05659, 13:19:43.421,0,0,0,0,0,0,0,0,0,
62.09189, 13:19:43.455,0,0,0,0,0,0,0,0,0,
62.13107, 13:19:43.495,0,0,0,0,0,0,0,0,0,
62.17543, 13:19:43.539,0,0,0,0,0,0,0,0,0,
62.23154, 13:19:43.597,0,0,0,0,0,0,0,0,0,
62.26816, 13:19:43.631,0,0,0,0,0,0,0,0,0,
62.30962, 13:19:43.673,0,0,0,0,0,0,0,0,0,
62.35537, 13:19:43.720,0,0,0,0,0,0,0,0,0,
62.40893, 13:19:43.775,0,0,0,0,0,0,0,0,0,
62.44689, 13:19:43.811,0,0,0,0,0,0,0,0,0,
62.48743, 13:19:43.851,0,0,0,0,0,0,0,0,0,
62.53077, 13:19:43.895,0,0,0,0,0,0,0,0,0,
62.58668, 13:19:43.951,0,0,0,0,0,0,0,0,0,
62.62826, 13:19:43.993,0,0,0,0,0,0,0,0,0,
62.67019, 13:19:44.035,0,0,0,0,0,0,0,0,0,
62.71657, 13:19:44.081,0,0,0,0,0,0,0,0,0,
62.76337, 13:19:44.127,0,0,0,0,0,0,0,0,0,
62.80008, 13:19:44.163,0,0,0,0,0,0,0,0,0,
62.8418, 13:19:44.204,0,0,0,0,0,0,0,0,0,
62.88855, 13:19:44.251,0,0,0,0,0,0,0,0,0,
62.93937, 13:19:44.302,0,0,0,0,0,0,0,0,0,
62.97825, 13:19:44.341,0,0,0,0,0,0,0,0,0,
63.0204, 13:19:44.384,0,0,0,0,0,0,0,0,0,
63.06423, 13:19:44.428,0,0,0,0,0,0,0,0,0,
63.1193, 13:19:44.483,0,0,0,0,0,0,0,0,0,
63.15651, 13:19:44.520,0,0,0,0,0,0,0,0,0,
63.19827, 13:19:44.562,0,0,0,0,0,0,0,0,0,
63.24031, 13:19:44.604,0,0,0,0,0,0,0,0,0,
63.29616, 13:19:44.660,0,0,0,0,0,0,0,0,0,
63.33653, 13:19:44.701,0,0,0,0,0,0,0,0,0,
63.37578, 13:19:44.740,0,0,0,0,0,0,0,0,0,
63.42044, 13:19:44.785,0,0,0,0,0,0,0,0,0,
63.47256, 13:19:44.837,0,0,0,0,0,0,0,0,0,
63.51208, 13:19:44.875,0,0,0,0,0,0,0,0,0,
63.55856, 13:19:44.923,0,0,0,0,0,0,0,0,0,
63.59784, 13:19:44.961,0,0,0,0,0,0,0,0,0,
63.65046, 13:19:45.015,0,0,0,0,0,0,0,0,0,
63.68896, 13:19:45.059,0,0,0,0,0,0,0,0,0,
63.73078, 13:19:45.094,0,0,0,0,0,0,0,0,0,
63.77986, 13:19:45.145,0,0,0,0,0,0,0,0,0,
63.8386, 13:19:45.204,0,0,0,0,0,0,0,0,0,
63.88114, 13:19:45.246,0,0,0,0,0,0,0,0,0,
63.91873, 13:19:45.281,0,0,0,0,0,0,0,0,0,
63.9524, 13:19:45.316,0,0,0,0,0,0,0,0,0,
64.00913, 13:19:45.373,0,0,0,0,0,0,0,0,0,
64.04887, 13:19:45.413,0,0,0,0,0,0,0,0,0,
64.08749, 13:19:45.451,0,0,0,0,0,0,0,0,0,
64.13107, 13:19:45.494,0,0,0,0,0,0,0,0,0,
64.18541, 13:19:45.550,0,0,0,0,0,0,0,0,0,
64.22521, 13:19:45.589,0,0,0,0,0,0,0,0,0,
64.26579, 13:19:45.630,0,0,0,0,0,0,0,0,0,
64.30744, 13:19:45.672,0,0,0,0,0,0,0,0,0,
64.36284, 13:19:45.727,0,0,0,0,0,0,0,0,0,
64.40092, 13:19:45.764,0,0,0,0,0,0,0,0,0,
64.44441, 13:19:45.808,0,0,0,0,0,0,0,0,0,
64.48637, 13:19:45.850,0,0,0,0,0,0,0,0,0,
64.53999, 13:19:45.904,0,0,0,0,0,0,0,0,0,
64.58101, 13:19:45.946,0,0,0,0,0,0,0,0,0,
64.62, 13:19:45.983,0,0,0,0,0,0,0,0,0,
64.66725, 13:19:46.031,0,0,0,0,0,0,0,0,0,
64.71767, 13:19:46.082,0,0,0,0,0,0,0,0,0,
64.75587, 13:19:46.119,0,0,0,0,0,0,0,0,0,
64.79919, 13:19:46.163,0,0,0,0,0,0,0,0,0,
64.84187, 13:19:46.206,0,0,0,0,0,0,0,0,0,
64.90028, 13:19:46.265,0,0,0,0,0,0,0,0,0,
64.9418, 13:19:46.306,0,0,0,0,0,0,0,0,0,
64.97884, 13:19:46.342,0,0,0,0,0,0,0,0,0,
65.02197, 13:19:46.387,0,0,0,0,0,0,0,0,0,
65.07645, 13:19:46.440,0,0,0,0,0,0,0,0,0,
65.114, 13:19:46.476,0,0,0,0,0,0,0,0,0,
65.15448, 13:19:46.517,0,0,0,0,0,0,0,0,0,
65.19637, 13:19:46.559,0,0,0,0,0,0,0,0,0,
65.2496, 13:19:46.614,0,0,0,0,0,0,0,0,0,
65.28962, 13:19:46.653,0,0,0,0,0,0,0,0,0,
65.33483, 13:19:46.699,0,0,0,0,0,0,0,0,0,
65.37577, 13:19:46.739,0,0,0,0,0,0,0,0,0,
65.42809, 13:19:46.793,0,0,0,0,0,0,0,0,0,
65.46752, 13:19:46.831,0,0,0,0,0,0,0,0,0,
65.50996, 13:19:46.873,0,0,0,0,0,0,0,0,0,
65.55527, 13:19:46.919,0,0,0,0,0,0,0,0,0,
65.60619, 13:19:46.971,0,0,0,0,0,0,0,0,0,
65.64587, 13:19:47.009,0,0,0,0,0,0,0,0,0,
65.68799, 13:19:47.052,0,0,0,0,0,0,0,0,0,
65.73114, 13:19:47.095,0,0,0,0,0,0,0,0,0,
65.78643, 13:19:47.152,0,0,0,0,0,0,0,0,0,
65.8232, 13:19:47.187,0,0,0,0,0,0,0,0,0,
65.86504, 13:19:47.228,0,0,0,0,0,0,0,0,0,
65.90803, 13:19:47.272,0,0,0,0,0,0,0,0,0,
65.96411, 13:19:47.329,0,0,0,0,0,0,0,0,0,
66.00401, 13:19:47.368,0,0,0,0,0,0,0,0,0,
66.04353, 13:19:47.408,0,0,0,0,0,0,0,0,0,
66.08867, 13:19:47.453,0,0,0,0,0,0,0,0,0,
66.14525, 13:19:47.511,0,0,0,0,0,0,0,0,0,
66.19951, 13:19:47.563,0,0,0,0,0,0,0,0,0,
66.23885, 13:19:47.602,0,0,0,0,0,0,0,0,0,
66.27971, 13:19:47.642,0,0,0,0,0,0,0,0,0,
66.31153, 13:19:47.675,0,0,0,0,0,0,0,0,0,
66.35253, 13:19:47.715,0,0,0,0,0,0,0,0,0,
66.39718, 13:19:47.760,0,0,0,0,0,0,0,0,0,
66.45067, 13:19:47.815,0,0,0,0,0,0,0,0,0,
66.49162, 13:19:47.855,0,0,0,0,0,0,0,0,0,
66.53158, 13:19:47.896,0,0,0,0,0,0,0,0,0,
66.57417, 13:19:47.937,0,0,0,0,0,0,0,0,0,
66.62901, 13:19:47.994,0,0,0,0,0,0,0,0,0,
66.66918, 13:19:48.032,0,0,0,0,0,0,0,0,0,
66.7126, 13:19:48.076,0,0,0,0,0,0,0,0,0,
66.75517, 13:19:48.118,0,0,0,0,0,0,0,0,0,
66.80733, 13:19:48.172,0,0,0,0,0,0,0,0,0,
66.84502, 13:19:48.208,0,0,0,0,0,0,0,0,0,
66.88734, 13:19:48.251,0,0,0,0,0,0,0,0,0,
66.93321, 13:19:48.298,0,0,0,0,0,0,0,0,0,
66.98637, 13:19:48.351,0,0,0,0,0,0,0,0,0,
67.02352, 13:19:48.387,0,0,0,0,0,0,0,0,0,
67.06716, 13:19:48.431,0,0,0,0,0,0,0,0,0,
67.10892, 13:19:48.472,0,0,0,0,0,0,0,0,0,
67.17074, 13:19:48.535,0,0,0,0,0,0,0,0,0,
67.20831, 13:19:48.573,0,0,0,0,0,0,0,0,0,
67.24422, 13:19:48.609,0,0,0,0,0,0,0,0,0,
67.28969, 13:19:48.656,0,0,0,0,0,0,0,0,0,
67.34781, 13:19:48.712,0,0,0,0,0,0,0,0,0,
67.38823, 13:19:48.752,0,0,0,0,0,0,0,0,0,
67.42074, 13:19:48.784,0,0,0,0,0,0,0,0,0,
67.46413, 13:19:48.826,0,0,0,0,0,0,0,0,0,
67.51781, 13:19:48.881,0,0,0,0,0,0,0,0,0,
67.55859, 13:19:48.922,0,0,0,0,0,0,0,0,0,
67.60293, 13:19:48.967,0,0,0,0,0,0,0,0,0,
67.64258, 13:19:49.007,0,0,0,0,0,0,0,0,0,
67.69777, 13:19:49.061,0,0,0,0,0,0,0,0,0,
67.73539, 13:19:49.100,0,0,0,0,0,0,0,0,0,
67.78102, 13:19:49.146,0,0,0,0,0,0,0,0,0,
67.8243, 13:19:49.187,0,0,0,0,0,0,0,0,0,
67.88156, 13:19:49.247,0,0,0,0,0,0,0,0,0,
67.92015, 13:19:49.284,0,0,0,0,0,0,0,0,0,
67.95584, 13:19:49.318,0,0,0,0,0,0,0,0,0,
67.99843, 13:19:49.362,0,0,0,0,0,0,0,0,0,
68.05494, 13:19:49.420,0,0,0,0,0,0,0,0,0,
68.09339, 13:19:49.458,0,0,0,0,0,0,0,0,0,
68.1314, 13:19:49.494,0,0,0,0,0,0,0,0,0,
68.17805, 13:19:49.540,0,0,0,0,0,0,0,0,0,
68.22823, 13:19:49.593,0,0,0,0,0,0,0,0,0,
68.27047, 13:19:49.634,0,0,0,0,0,0,0,0,0,
68.31119, 13:19:49.675,0,0,0,0,0,0,0,0,0,
68.35509, 13:19:49.719,0,0,0,0,0,0,0,0,0,
68.40829, 13:19:49.774,0,0,0,0,0,0,0,0,0,
68.45133, 13:19:49.815,0,0,0,0,0,0,0,0,0,
68.50075, 13:19:49.866,0,0,0,0,0,0,0,0,0,
68.53559, 13:19:49.898,0,0,0,0,0,0,0,0,0,
68.58536, 13:19:49.949,0,0,0,0,0,0,0,0,0,
68.62316, 13:19:49.986,0,0,0,0,0,0,0,0,0,
68.66457, 13:19:50.028,0,0,0,0,0,0,0,0,0,
68.71223, 13:19:50.075,0,0,0,0,0,0,0,0,0,
68.76433, 13:19:50.128,0,0,0,0,0,0,0,0,0,
68.8027, 13:19:50.166,0,0,0,0,0,0,0,0,0,
68.8445, 13:19:50.207,0,0,0,0,0,0,0,0,0,
68.88834, 13:19:50.252,0,0,0,0,0,0,0,0,0,
68.94283, 13:19:50.308,0,0,0,0,0,0,0,0,0,
68.98003, 13:19:50.344,0,0,0,0,0,0,0,0,0,
69.02372, 13:19:50.388,0,0,0,0,0,0,0,0,0,
69.06663, 13:19:50.429,0,0,0,0,0,0,0,0,0,
69.11809, 13:19:50.481,0,0,0,0,0,0,0,0,0,
69.16105, 13:19:50.524,0,0,0,0,0,0,0,0,0,
69.19981, 13:19:50.562,0,0,0,0,0,0,0,0,0,
69.24332, 13:19:50.608,0,0,0,0,0,0,0,0,0,
69.29575, 13:19:50.660,0,0,0,0,0,0,0,0,0,
69.33472, 13:19:50.699,0,0,0,0,0,0,0,0,0,
69.37986, 13:19:50.744,0,0,0,0,0,0,0,0,0,
69.42085, 13:19:50.786,0,0,0,0,0,0,0,0,0,
69.47369, 13:19:50.837,0,0,0,0,0,0,0,0,0,
69.51231, 13:19:50.876,0,0,0,0,0,0,0,0,0,
69.55556, 13:19:50.919,0,0,0,0,0,0,0,0,0,
69.60209, 13:19:50.968,0,0,0,0,0,0,0,0,0,
69.65874, 13:19:51.023,0,0,0,0,0,0,0,0,0,
69.69491, 13:19:51.059,0,0,0,0,0,0,0,0,0,
69.7322, 13:19:51.097,0,0,0,0,0,0,0,0,0,
69.77902, 13:19:51.143,0,0,0,0,0,0,0,0,0,
69.8324, 13:19:51.197,0,0,0,0,0,0,0,0,0,
69.86991, 13:19:51.233,0,0,0,0,0,0,0,0,0,
69.91059, 13:19:51.274,0,0,0,0,0,0,0,0,0,
69.96194, 13:19:51.327,0,0,0,0,0,0,0,0,0,
70.00718, 13:19:51.371,0,0,0,0,0,0,0,0,0,
70.04918, 13:19:51.413,0,0,0,0,0,0,0,0,0,
70.08841, 13:19:51.451,0,0,0,0,0,0,0,0,0,
70.13092, 13:19:51.494,0,0,0,0,0,0,0,0,0,
70.18628, 13:19:51.550,0,0,0,0,0,0,0,0,0,
70.22376, 13:19:51.588,0,0,0,0,0,0,0,0,0,
70.26917, 13:19:51.633,0,0,0,0,0,0,0,0,0,
70.32885, 13:19:51.694,0,0,0,0,0,0,0,0,0,
70.37042, 13:19:51.734,0,0,0,0,0,0,0,0,0,
70.42019, 13:19:51.783,0,0,0,0,0,0,0,0,0,
70.48834, 13:19:51.854,0,0,0,0,0,0,0,0,0,
70.53632, 13:19:51.900,0,0,0,0,0,0,0,0,0,
70.57025, 13:19:51.933,0,0,0,0,0,0,0,0,0,
70.60115, 13:19:51.965,0,0,0,0,0,0,0,0,0,
70.63074, 13:19:51.992,0,0,0,0,0,0,0,0,0,
70.66436, 13:19:52.027,0,0,0,0,0,0,0,0,0,
70.71186, 13:19:52.076,0,0,0,0,0,0,0,0,0,
70.76572, 13:19:52.131,0,0,0,0,0,0,0,0,0,
70.81702, 13:19:52.180,0,0,0,0,0,0,0,0,0,
70.85084, 13:19:52.213,0,0,0,0,0,0,0,0,0,
70.89037, 13:19:52.253,0,0,0,0,0,0,0,0,0,
70.93169, 13:19:52.295,0,0,0,0,0,0,0,0,0,
70.97974, 13:19:52.343,0,0,0,0,0,0,0,0,0,
71.02412, 13:19:52.387,0,0,0,0,0,0,0,0,0,
71.06956, 13:19:52.433,0,0,0,0,0,0,0,0,0,
71.111, 13:19:52.475,0,0,0,0,0,0,0,0,0,
71.15351, 13:19:52.516,0,0,0,0,0,0,0,0,0,
71.20283, 13:19:52.568,0,0,0,0,0,0,0,0,0,
71.24649, 13:19:52.610,0,0,0,0,0,0,0,0,0,
71.28889, 13:19:52.652,0,0,0,0,0,0,0,0,0,
71.33218, 13:19:52.696,0,0,0,0,0,0,0,0,0,
71.38053, 13:19:52.744,0,0,0,0,0,0,0,0,0,
71.4279, 13:19:52.790,0,0,0,0,0,0,0,0,0,
71.46983, 13:19:52.833,0,0,0,0,0,0,0,0,0,
71.51664, 13:19:52.880,0,0,0,0,0,0,0,0,0,
71.55961, 13:19:52.923,0,0,0,0,0,0,0,0,0,
71.60191, 13:19:52.966,0,0,0,0,0,0,0,0,0,
71.64602, 13:19:53.009,0,0,0,0,0,0,0,0,0,
71.68811, 13:19:53.051,0,0,0,0,0,0,0,0,0,
71.73777, 13:19:53.102,0,0,0,0,0,0,0,0,0,
71.78011, 13:19:53.144,0,0,0,0,0,0,0,0,0,
71.82538, 13:19:53.189,0,0,0,0,0,0,0,0,0,
71.87681, 13:19:53.241,0,0,0,0,0,0,0,0,0,
71.91795, 13:19:53.282,0,0,0,0,0,0,0,0,0,
71.9631, 13:19:53.328,0,0,0,0,0,0,0,0,0,
72.0013, 13:19:53.365,0,0,0,0,0,0,0,0,0,
72.04392, 13:19:53.407,0,0,0,0,0,0,0,0,0,
72.09232, 13:19:53.456,0,0,0,0,0,0,0,0,0,
72.13597, 13:19:53.499,0,0,0,0,0,0,0,0,0,
72.17841, 13:19:53.542,0,0,0,0,0,0,0,0,0,
72.22158, 13:19:53.585,0,0,0,0,0,0,0,0,0,
72.26841, 13:19:53.632,0,0,0,0,0,0,0,0,0,
72.31599, 13:19:53.679,0,0,0,0,0,0,0,0,0,
72.35578, 13:19:53.719,0,0,0,0,0,0,0,0,0,
72.3987, 13:19:53.762,0,0,0,0,0,0,0,0,0,
72.44836, 13:19:53.812,0,0,0,0,0,0,0,0,0,
72.49158, 13:19:53.855,0,0,0,0,0,0,0,0,0,
72.53621, 13:19:53.899,0,0,0,0,0,0,0,0,0,
72.57817, 13:19:53.941,0,0,0,0,0,0,0,0,0,
72.63149, 13:19:53.995,0,0,0,0,0,0,0,0,0,
72.6694, 13:19:54.032,0,0,0,0,0,0,0,0,0,
72.71162, 13:19:54.075,0,0,0,0,0,0,0,0,0,
72.75719, 13:19:54.120,0,0,0,0,0,0,0,0,0,
72.8024, 13:19:54.166,0,0,0,0,0,0,0,0,0,
72.84798, 13:19:54.211,0,0,0,0,0,0,0,0,0,
72.89093, 13:19:54.254,0,0,0,0,0,0,0,0,0,
72.93262, 13:19:54.297,0,0,0,0,0,0,0,0,0,
72.98318, 13:19:54.347,0,0,0,0,0,0,0,0,0,
73.02629, 13:19:54.390,0,0,0,0,0,0,0,0,0,
73.06969, 13:19:54.434,0,0,0,0,0,0,0,0,0,
73.1107, 13:19:54.475,0,0,0,0,0,0,0,0,0,
73.16313, 13:19:54.530,0,0,0,0,0,0,0,0,0,
73.21021, 13:19:54.575,0,0,0,0,0,0,0,0,0,
73.2474, 13:19:54.611,0,0,0,0,0,0,0,0,0,
73.28892, 13:19:54.653,0,0,0,0,0,0,0,0,0,
73.33675, 13:19:54.699,0,0,0,0,0,0,0,0,0,
73.38106, 13:19:54.745,0,0,0,0,0,0,0,0,0,
73.42532, 13:19:54.790,0,0,0,0,0,0,0,0,0,
73.46669, 13:19:54.831,0,0,0,0,0,0,0,0,0,
73.51365, 13:19:54.877,0,0,0,0,0,0,0,0,0,
73.55858, 13:19:54.923,0,0,0,0,0,0,0,0,0,
73.60136, 13:19:54.967,0,0,0,0,0,0,0,0,0,
73.64629, 13:19:55.009,0,0,0,0,0,0,0,0,0,
73.69147, 13:19:55.055,0,0,0,0,0,0,0,0,0,
73.73684, 13:19:55.101,0,0,0,0,0,0,0,0,0,
73.77866, 13:19:55.143,0,0,0,0,0,0,0,0,0,
73.8305, 13:19:55.195,0,0,0,0,0,0,0,0,0,
73.88006, 13:19:55.244,0,0,0,0,0,0,0,0,0,
73.91701, 13:19:55.279,0,0,0,0,0,0,0,0,0,
73.95856, 13:19:55.322,0,0,0,0,0,0,0,0,0,
74.0001, 13:19:55.365,0,0,0,0,0,0,0,0,0,
74.04584, 13:19:55.410,0,0,0,0,0,0,0,0,0,
74.09327, 13:19:55.457,0,0,0,0,0,0,0,0,0,
74.1358, 13:19:55.499,0,0,0,0,0,0,0,0,0,
74.17706, 13:19:55.541,0,0,0,0,0,0,0,0,0,
74.22557, 13:19:55.590,0,0,0,0,0,0,0,0,0,
74.27238, 13:19:55.637,0,0,0,0,0,0,0,0,0,
74.31766, 13:19:55.683,0,0,0,0,0,0,0,0,0,
74.35988, 13:19:55.725,0,0,0,0,0,0,0,0,0,
74.41065, 13:19:55.775,0,0,0,0,0,0,0,0,0,
74.44704, 13:19:55.809,0,0,0,0,0,0,0,0,0,
74.49078, 13:19:55.853,0,0,0,0,0,0,0,0,0,
74.53477, 13:19:55.898,0,0,0,0,0,0,0,0,0,
74.58045, 13:19:55.945,0,0,0,0,0,0,0,0,0,
74.62628, 13:19:55.990,0,0,0,0,0,0,0,0,0,
74.66941, 13:19:56.033,0,0,0,0,0,0,0,0,0,
74.71111, 13:19:56.074,0,0,0,0,0,0,0,0,0,
74.76094, 13:19:56.125,0,0,0,0,0,0,0,0,0,
74.80293, 13:19:56.167,0,0,0,0,0,0,0,0,0,
74.84605, 13:19:56.209,0,0,0,0,0,0,0,0,0,
74.88843, 13:19:56.253,0,0,0,0,0,0,0,0,0,
74.93646, 13:19:56.300,0,0,0,0,0,0,0,0,0,
74.98326, 13:19:56.348,0,0,0,0,0,0,0,0,0,
75.02356, 13:19:56.387,0,0,0,0,0,0,0,0,0,
75.06732, 13:19:56.432,0,0,0,0,0,0,0,0,0,
75.11476, 13:19:56.478,0,0,0,0,0,0,0,0,0,
75.15874, 13:19:56.523,0,0,0,0,0,0,0,0,0,
75.20284, 13:19:56.568,0,0,0,0,0,0,0,0,0,
75.24435, 13:19:56.608,0,0,0,0,0,0,0,0,0,
75.292, 13:19:56.656,0,0,0,0,0,0,0,0,0,
75.33605, 13:19:56.699,0,0,0,0,0,0,0,0,0,
75.3783, 13:19:56.742,0,0,0,0,0,0,0,0,0,
75.42803, 13:19:56.793,0,0,0,0,0,0,0,0,0,
75.47181, 13:19:56.836,0,0,0,0,0,0,0,0,0,
75.51889, 13:19:56.883,0,0,0,0,0,0,0,0,0,
75.55828, 13:19:56.923,0,0,0,0,0,0,0,0,0,
75.59917, 13:19:56.963,0,0,0,0,0,0,0,0,0,
75.65117, 13:19:57.015,0,0,0,0,0,0,0,0,0,
75.69274, 13:19:57.056,0,0,0,0,0,0,0,0,0,
75.73438, 13:19:57.098,0,0,0,0,0,0,0,0,0,
75.77733, 13:19:57.141,0,0,0,0,0,0,0,0,0,
75.82708, 13:19:57.192,0,0,0,0,0,0,0,0,0,
75.87221, 13:19:57.236,0,0,0,0,0,0,0,0,0,
75.91293, 13:19:57.277,0,0,0,0,0,0,0,0,0,
75.95634, 13:19:57.320,0,0,0,0,0,0,0,0,0,
76.00284, 13:19:57.368,0,0,0,0,0,0,0,0,0,
76.04812, 13:19:57.411,0,0,0,0,0,0,0,0,0,
76.09249, 13:19:57.455,0,0,0,0,0,0,0,0,0,
76.13296, 13:19:57.496,0,0,0,0,0,0,0,0,0,
76.17992, 13:19:57.543,0,0,0,0,0,0,0,0,0,
76.22569, 13:19:57.589,0,0,0,0,0,0,0,0,0,
76.26915, 13:19:57.632,0,0,0,0,0,0,0,0,0,
76.31348, 13:19:57.677,0,0,0,0,0,0,0,0,0,
76.36069, 13:19:57.724,0,0,0,0,0,0,0,0,0,
76.40532, 13:19:57.768,0,0,0,0,0,0,0,0,0,
76.45235, 13:19:57.815,0,0,0,0,0,0,0,0,0,
76.48979, 13:19:57.853,0,0,0,0,0,0,0,0,0,
76.53886, 13:19:57.902,0,0,0,0,0,0,0,0,0,
76.58432, 13:19:57.949,0,0,0,0,0,0,0,0,0,
76.62601, 13:19:57.990,0,0,0,0,0,0,0,0,0,
76.67021, 13:19:58.034,0,0,0,0,0,0,0,0,0,
76.72804, 13:19:58.093,0,0,0,0,0,0,0,0,0,
76.78056, 13:19:58.144,0,0,0,0,0,0,0,0,0,
76.81876, 13:19:58.181,0,0,0,0,0,0,0,0,0,
76.84949, 13:19:58.213,0,0,0,0,0,0,0,0,0,
76.89164, 13:19:58.255,0,0,0,0,0,0,0,0,0,
76.93594, 13:19:58.299,0,0,0,0,0,0,0,0,0,
76.9796, 13:19:58.343,0,0,0,0,0,0,0,0,0,
77.02333, 13:19:58.389,0,0,0,0,0,0,0,0,0,
77.07108, 13:19:58.436,0,0,0,0,0,0,0,0,0,
77.11408, 13:19:58.479,0,0,0,0,0,0,0,0,0,
77.15782, 13:19:58.521,0,0,0,0,0,0,0,0,0,
77.20287, 13:19:58.567,0,0,0,0,0,0,0,0,0,
77.24815, 13:19:58.612,0,0,0,0,0,0,0,0,0,
77.29276, 13:19:58.656,0,0,0,0,0,0,0,0,0,
77.33468, 13:19:58.698,0,0,0,0,0,0,0,0,0,
77.37784, 13:19:58.741,0,0,0,0,0,0,0,0,0,
77.42767, 13:19:58.793,0,0,0,0,0,0,0,0,0,
77.47124, 13:19:58.835,0,0,0,0,0,0,0,0,0,
77.51227, 13:19:58.876,0,0,0,0,0,0,0,0,0,
77.55582, 13:19:58.920,0,0,0,0,0,0,0,0,0,
77.60623, 13:19:58.971,0,0,0,0,0,0,0,0,0,
77.65161, 13:19:59.016,0,0,0,0,0,0,0,0,0,
77.69476, 13:19:59.058,0,0,0,0,0,0,0,0,0,
Elapsed_Time, System_Time, Euler_Roll, Euler_Pitch, Euler_Yaw, Gyro_Roll, Gyro_Pitch, Gyro_Yaw, Accel_x, Accel_y, Accel_z
0.02, 13:20:44.515,0,0,0,0,0,0,0,0,0,
0.04, 13:20:44.627,0,0,0,0,0,0,0,0,0,
0.3733333, 13:20:45.318,0,0,0,0,0,0,0,0,0,
0.5293056, 13:20:45.467,0,0,0,0,0,0,0,0,0,
0.5918707, 13:20:45.521,0,0,0,0,0,0,0,0,0,
0.6272129, 13:20:45.554,0,0,0,0,0,0,0,0,0,
0.6819624, 13:20:45.611,0,0,0,0,0,0,0,0,0,
0.7239932, 13:20:45.652,0,0,0,0,0,0,0,0,0,
0.7647176, 13:20:45.694,0,0,0,0,0,0,0,0,0,
0.8041687, 13:20:45.734,0,0,0,0,0,0,0,0,0,
0.8505644, 13:20:45.779,0,0,0,0,0,0,0,0,0,
0.8916481, 13:20:45.821,0,0,0,0,0,0,0,0,0,
0.9245499, 13:20:45.852,0,0,0,0,0,0,0,0,0,
0.9558201, 13:20:45.883,0,0,0,0,0,0,0,0,0,
0.9844195, 13:20:45.912,0,0,0,0,0,0,0,0,0,
1.020086, 13:20:45.948,0,0,0,0,0,0,0,0,0,
1.058257, 13:20:45.987,0,0,0,0,0,0,0,0,0,
1.102878, 13:20:46.033,0,0,0,0,0,0,0,0,0,
1.162863, 13:20:46.091,0,0,0,0,0,0,0,0,0,
1.244844, 13:20:46.174,0,0,0,0,0,0,0,0,0,
1.285171, 13:20:46.213,0,0,0,0,0,0,0,0,0,
1.323502, 13:20:46.252,0,0,0,0,0,0,0,0,0,
1.35403, 13:20:46.281,0,0,0,0,0,0,0,0,0,
1.39948, 13:20:46.328,0,0,0,0,0,0,0,0,0,
1.433776, 13:20:46.362,0,0,0,0,0,0,0,0,0,
1.47187, 13:20:46.400,0,0,0,0,0,0,0,0,0,
1.554353, 13:20:46.485,0,0,0,0,0,0,0,0,0,
1.589306, 13:20:46.517,0,0,0,0,0,0,0,0,0,
1.619755, 13:20:46.612,0,0,0,0,0,0,0,0,0,
1.712794, 13:20:46.645,0,0,0,0,0,0,0,0,0,
1.788847, 13:20:46.719,0,0,0,0,0,0,0,0,0,
1.954188, 13:20:46.890,0,0,0,0,0,0,0,0,0,
2.005141, 13:20:46.936,0,0,0,0,0,0,0,0,0,
2.106897, 13:20:47.038,0,0,0,0,0,0,0,0,0,
2.192335, 13:20:47.123,0,0,0,0,0,0,0,0,0,
2.237682, 13:20:47.166,0,0,0,0,0,0,0,0,0,
2.27019, 13:20:47.198,0,0,0,0,0,0,0,0,0,
2.302335, 13:20:47.231,0,0,0,0,0,0,0,0,0,
2.336285, 13:20:47.264,0,0,0,0,0,0,0,0,0,
2.364411, 13:20:47.293,0,0,0,0,0,0,0,0,0,
2.394114, 13:20:47.321,0,0,0,0,0,0,0,0,0,
2.424933, 13:20:47.353,0,0,0,0,0,0,0,0,0,
2.458019, 13:20:47.386,0,0,0,0,0,0,0,0,0,
2.490394, 13:20:47.419,0,0,0,0,0,0,0,0,0,
2.519884, 13:20:47.448,0,0,0,0,0,0,0,0,0,
2.550408, 13:20:47.478,0,0,0,0,0,0,0,0,0,
2.581788, 13:20:47.510,0,0,0,0,0,0,0,0,0,
2.618544, 13:20:47.546,0,0,0,0,0,0,0,0,0,
2.653972, 13:20:47.582,0,0,0,0,0,0,0,0,0,
2.684407, 13:20:47.613,0,0,0,0,0,0,0,0,0,
2.713986, 13:20:47.641,0,0,0,0,0,0,0,0,0,
2.743201, 13:20:47.672,0,0,0,0,0,0,0,0,0,
2.776682, 13:20:47.704,0,0,0,0,0,0,0,0,0,
2.808058, 13:20:47.736,0,0,0,0,0,0,0,0,0,
2.837298, 13:20:47.766,0,0,0,0,0,0,0,0,0,
2.868893, 13:20:47.796,0,0,0,0,0,0,0,0,0,
2.899334, 13:20:47.826,0,0,0,0,0,0,0,0,0,
2.931554, 13:20:47.859,0,0,0,0,0,0,0,0,0,
2.964115, 13:20:47.892,0,0,0,0,0,0,0,0,0,
2.993186, 13:20:47.920,0,0,0,0,0,0,0,0,0,
3.022885, 13:20:47.952,0,0,0,0,0,0,0,0,0,
3.054825, 13:20:47.982,0,0,0,0,0,0,0,0,0,
3.0908, 13:20:48.019,0,0,0,0,0,0,0,0,0,
3.123349, 13:20:48.052,0,0,0,0,0,0,0,0,0,
3.157373, 13:20:48.086,0,0,0,0,0,0,0,0,0,
3.192722, 13:20:48.122,0,0,0,0,0,0,0,0,0,
3.233474, 13:20:48.164,0,0,0,0,0,0,0,0,0,
3.273677, 13:20:48.201,0,0,0,0,0,0,0,0,0,
3.309187, 13:20:48.237,0,0,0,0,0,0,0,0,0,
3.33853, 13:20:48.266,0,0,0,0,0,0,0,0,0,
3.367293, 13:20:48.296,0,0,0,0,0,0,0,0,0,
3.398644, 13:20:48.326,0,0,0,0,0,0,0,0,0,
3.429814, 13:20:48.358,0,0,0,0,0,0,0,0,0,
3.464551, 13:20:48.394,0,0,0,0,0,0,0,0,0,
3.494243, 13:20:48.422,0,0,0,0,0,0,0,0,0,
3.527928, 13:20:48.457,0,0,0,0,0,0,0,0,0,
3.560161, 13:20:48.488,0,0,0,0,0,0,0,0,0,
3.594124, 13:20:48.521,0,0,0,0,0,0,0,0,0,
3.626461, 13:20:48.555,0,0,0,0,0,0,0,0,0,
3.656919, 13:20:48.584,0,0,0,0,0,0,0,0,0,
3.68493, 13:20:48.613,0,0,0,0,0,0,0,0,0,
3.716142, 13:20:48.643,0,0,0,0,0,0,0,0,0,
3.756912, 13:20:48.685,0,0,0,0,0,0,0,0,0,
3.789878, 13:20:48.718,0,0,0,0,0,0,0,0,0,
3.819369, 13:20:48.748,0,0,0,0,0,0,0,0,0,
3.849104, 13:20:48.778,0,0,0,0,0,0,0,0,0,
3.879649, 13:20:48.807,0,0,0,0,0,0,0,0,0,
3.913113, 13:20:48.842,0,0,0,0,0,0,0,0,0,
3.945863, 13:20:48.874,0,0,0,0,0,0,0,0,0,
3.976917, 13:20:48.904,0,0,0,0,0,0,0,0,0,
4.007541, 13:20:48.935,0,0,0,0,0,0,0,0,0,
4.042652, 13:20:48.970,0,0,0,0,0,0,0,0,0,
4.077433, 13:20:49.005,0,0,0,0,0,0,0,0,0,
4.11138, 13:20:49.040,0,0,0,0,0,0,0,0,0,
4.141716, 13:20:49.069,0,0,0,0,0,0,0,0,0,
4.170773, 13:20:49.098,0,0,0,0,0,0,0,0,0,
4.204396, 13:20:49.133,0,0,0,0,0,0,0,0,0,
4.237249, 13:20:49.165,0,0,0,0,0,0,0,0,0,
4.269223, 13:20:49.197,0,0,0,0,0,0,0,0,0,
4.300289, 13:20:49.229,0,0,0,0,0,0,0,0,0,
4.333745, 13:20:49.261,0,0,0,0,0,0,0,0,0,
4.36686, 13:20:49.296,0,0,0,0,0,0,0,0,0,
4.414051, 13:20:49.342,0,0,0,0,0,0,0,0,0,
4.450066, 13:20:49.379,0,0,0,0,0,0,0,0,0,
4.480453, 13:20:49.408,0,0,0,0,0,0,0,0,0,
4.509003, 13:20:49.436,0,0,0,0,0,0,0,0,0,
4.540446, 13:20:49.469,0,0,0,0,0,0,0,0,0,
4.579308, 13:20:49.506,0,0,0,0,0,0,0,0,0,
4.613036, 13:20:49.541,0,0,0,0,0,0,0,0,0,
4.641385, 13:20:49.570,0,0,0,0,0,0,0,0,0,
4.67411, 13:20:49.601,0,0,0,0,0,0,0,0,0,
4.702702, 13:20:49.631,0,0,0,0,0,0,0,0,0,
4.737451, 13:20:49.665,0,0,0,0,0,0,0,0,0,
4.768851, 13:20:49.697,0,0,0,0,0,0,0,0,0,
4.798889, 13:20:49.726,0,0,0,0,0,0,0,0,0,
4.82735, 13:20:49.756,0,0,0,0,0,0,0,0,0,
4.863894, 13:20:49.793,0,0,0,0,0,0,0,0,0,
4.90167, 13:20:49.830,0,0,0,0,0,0,0,0,0,
4.933621, 13:20:49.861,0,0,0,0,0,0,0,0,0,
4.962584, 13:20:49.891,0,0,0,0,0,0,0,0,0,
4.99271, 13:20:49.920,0,0,0,0,0,0,0,0,0,
5.022031, 13:20:49.950,0,0,0,0,0,0,0,0,0,
5.05423, 13:20:49.983,0,0,0,0,0,0,0,0,0,
5.08739, 13:20:50.015,0,0,0,0,0,0,0,0,0,
5.123249, 13:20:50.051,0,0,0,0,0,0,0,0,0,
5.153737, 13:20:50.080,0,0,0,0,0,0,0,0,0,
5.182911, 13:20:50.234,0,0,0,0,0,0,0,0,0,
5.341505, 13:20:50.276,0,0,0,0,0,0,0,0,0,
5.384821, 13:20:50.314,0,0,0,0,0,0,0,0,0,
5.466652, 13:20:50.398,0,0,0,0,0,0,0,0,0,
5.549066, 13:20:50.480,0,0,0,0,0,0,0,0,0,
5.593812, 13:20:50.522,0,0,0,0,0,0,0,0,0,
5.629956, 13:20:50.559,0,0,0,0,0,0,0,0,0,
5.660518, 13:20:50.589,0,0,0,0,0,0,0,0,0,
5.69095, 13:20:50.618,0,0,0,0,0,0,0,0,0,
5.723748, 13:20:50.652,0,0,0,0,0,0,0,0,0,
5.75791, 13:20:50.686,0,0,0,0,0,0,0,0,0,
5.792099, 13:20:50.720,0,0,0,0,0,0,0,0,0,
5.821333, 13:20:50.750,0,0,0,0,0,0,0,0,0,
5.854036, 13:20:50.782,0,0,0,0,0,0,0,0,0,
5.886956, 13:20:50.815,0,0,0,0,0,0,0,0,0,
5.922219, 13:20:50.850,0,0,0,0,0,0,0,0,0,
5.954879, 13:20:50.882,0,0,0,0,0,0,0,0,0,
5.982917, 13:20:50.911,0,0,0,0,0,0,0,0,0,
6.015342, 13:20:50.943,0,0,0,0,0,0,0,0,0,
6.04593, 13:20:50.974,0,0,0,0,0,0,0,0,0,
6.079421, 13:20:51.007,0,0,0,0,0,0,0,0,0,
6.111053, 13:20:51.040,0,0,0,0,0,0,0,0,0,
6.141774, 13:20:51.071,0,0,0,0,0,0,0,0,0,
6.172318, 13:20:51.099,0,0,0,0,0,0,0,0,0,
6.201907, 13:20:51.130,0,0,0,0,0,0,0,0,0,
6.238853, 13:20:51.166,0,0,0,0,0,0,0,0,0,
6.27042, 13:20:51.198,0,0,0,0,0,0,0,0,0,
6.299729, 13:20:51.227,0,0,0,0,0,0,0,0,0,
6.329648, 13:20:51.258,0,0,0,0,0,0,0,0,0,
6.359998, 13:20:51.287,0,0,0,0,0,0,0,0,0,
6.393322, 13:20:51.323,0,0,0,0,0,0,0,0,0,
6.42627, 13:20:51.354,0,0,0,0,0,0,0,0,0,
6.457863, 13:20:51.385,0,0,0,0,0,0,0,0,0,
6.487243, 13:20:51.415,0,0,0,0,0,0,0,0,0,
6.518254, 13:20:51.445,0,0,0,0,0,0,0,0,0,
6.553819, 13:20:51.483,0,0,0,0,0,0,0,0,0,
6.586339, 13:20:51.515,0,0,0,0,0,0,0,0,0,
6.615603, 13:20:51.544,0,0,0,0,0,0,0,0,0,
6.647667, 13:20:51.577,0,0,0,0,0,0,0,0,0,
6.687519, 13:20:51.617,0,0,0,0,0,0,0,0,0,
6.729922, 13:20:51.658,0,0,0,0,0,0,0,0,0,
6.765351, 13:20:51.693,0,0,0,0,0,0,0,0,0,
6.79667, 13:20:51.723,0,0,0,0,0,0,0,0,0,
