Elapsed_Time, System_Time, Euler_Roll, Euler_Pitch, Euler_Yaw, Gyro_Roll, Gyro_Pitch, Gyro_Yaw, Accel_x, Accel_y, Accel_z
0.02, 11:35:56.868,0,0,0,0,0,0,0,0,0,
0.04, 11:35:57.939,0,0,0,0,0,0,0,0,0,
0.3733333, 11:36:08.257,0,0,0,0,0,0,0,0,0,
0.5213717, 11:36:08.379,0,0,0,0,0,0,0,0,0,
0.5879957, 11:36:08.438,0,0,0,0,0,0,0,0,0,
0.6660414, 11:36:08.518,0,0,0,0,0,0,0,0,0,
0.7069011, 11:36:08.556,0,0,0,0,0,0,0,0,0,
0.7466146, 11:36:08.596,0,0,0,0,0,0,0,0,0,
0.8263988, 11:36:08.677,0,0,0,0,0,0,0,0,0,
0.8649116, 11:36:08.714,0,0,0,0,0,0,0,0,0,
0.9048892, 11:36:08.754,0,0,0,0,0,0,0,0,0,
0.955946, 11:36:08.805,0,0,0,0,0,0,0,0,0,
0.992993, 11:36:08.842,0,0,0,0,0,0,0,0,0,
1.0257, 11:36:08.875,0,0,0,0,0,0,0,0,0,
1.068043, 11:36:08.917,0,0,0,0,0,0,0,0,0,
1.103799, 11:36:08.953,0,0,0,0,0,0,0,0,0,
1.166425, 11:36:09.017,0,0,0,0,0,0,0,0,0,
1.206136, 11:36:09.056,0,0,0,0,0,0,0,0,0,
1.241841, 11:36:09.092,0,0,0,0,0,0,0,0,0,
1.275184, 11:36:09.123,0,0,0,0,0,0,0,0,0,
1.311717, 11:36:09.160,0,0,0,0,0,0,0,0,0,
1.353703, 11:36:09.203,0,0,0,0,0,0,0,0,0,
1.395688, 11:36:09.245,0,0,0,0,0,0,0,0,0,
1.429528, 11:36:09.279,0,0,0,0,0,0,0,0,0,
1.473089, 11:36:09.322,0,0,0,0,0,0,0,0,0,
1.629693, 11:36:09.486,0,0,0,0,0,0,0,0,0,
1.67294, 11:36:09.523,0,0,0,0,0,0,0,0,0,
1.752939, 11:36:09.817,0,0,0,0,0,0,0,0,0,
1.997165, 11:36:09.858,0,0,0,0,0,0,0,0,0,
2.330499, 11:36:10.392,0,0,0,0,0,0,0,0,0,
2.593942, 11:36:10.652,0,0,0,0,0,0,0,0,0,
2.644468, 11:36:10.693,0,0,0,0,0,0,0,0,0,
2.769886, 11:36:10.821,0,0,0,0,0,0,0,0,0,
2.870928, 11:36:10.920,0,0,0,0,0,0,0,0,0,
2.909849, 11:36:10.956,0,0,0,0,0,0,0,0,0,
2.940525, 11:36:10.987,0,0,0,0,0,0,0,0,0,
2.97147, 11:36:11.016,0,0,0,0,0,0,0,0,0,
3.001735, 11:36:11.055,0,0,0,0,0,0,0,0,0,
3.038528, 11:36:11.084,0,0,0,0,0,0,0,0,0,
3.067236, 11:36:11.114,0,0,0,0,0,0,0,0,0,
3.098112, 11:36:11.143,0,0,0,0,0,0,0,0,0,
3.13115, 11:36:11.178,0,0,0,0,0,0,0,0,0,
3.161955, 11:36:11.208,0,0,0,0,0,0,0,0,0,
3.240755, 11:36:11.289,0,0,0,0,0,0,0,0,0,
3.27471, 11:36:11.320,0,0,0,0,0,0,0,0,0,
3.323583, 11:36:11.371,0,0,0,0,0,0,0,0,0,
3.371608, 11:36:11.418,0,0,0,0,0,0,0,0,0,
3.406147, 11:36:11.452,0,0,0,0,0,0,0,0,0,
3.445768, 11:36:11.492,0,0,0,0,0,0,0,0,0,
3.480531, 11:36:11.528,0,0,0,0,0,0,0,0,0,
3.512542, 11:36:11.558,0,0,0,0,0,0,0,0,0,
3.566968, 11:36:11.615,0,0,0,0,0,0,0,0,0,
3.60091, 11:36:11.647,0,0,0,0,0,0,0,0,0,
3.633334, 11:36:11.679,0,0,0,0,0,0,0,0,0,
3.666239, 11:36:11.713,0,0,0,0,0,0,0,0,0,
3.69859, 11:36:11.744,0,0,0,0,0,0,0,0,0,
3.734265, 11:36:11.781,0,0,0,0,0,0,0,0,0,
3.767365, 11:36:11.815,0,0,0,0,0,0,0,0,0,
3.805416, 11:36:11.853,0,0,0,0,0,0,0,0,0,
3.848318, 11:36:11.895,0,0,0,0,0,0,0,0,0,
3.884034, 11:36:11.931,0,0,0,0,0,0,0,0,0,
3.920238, 11:36:11.967,0,0,0,0,0,0,0,0,0,
3.952346, 11:36:11.998,0,0,0,0,0,0,0,0,0,
3.983551, 11:36:12.029,0,0,0,0,0,0,0,0,0,
4.022859, 11:36:12.069,0,0,0,0,0,0,0,0,0,
4.057078, 11:36:12.102,0,0,0,0,0,0,0,0,0,
4.085118, 11:36:12.131,0,0,0,0,0,0,0,0,0,
4.116436, 11:36:12.162,0,0,0,0,0,0,0,0,0,
4.149957, 11:36:12.196,0,0,0,0,0,0,0,0,0,
4.179121, 11:36:12.225,0,0,0,0,0,0,0,0,0,
4.208364, 11:36:12.255,0,0,0,0,0,0,0,0,0,
4.238434, 11:36:12.284,0,0,0,0,0,0,0,0,0,
4.271889, 11:36:12.318,0,0,0,0,0,0,0,0,0,
4.302697, 11:36:12.350,0,0,0,0,0,0,0,0,0,
4.333331, 11:36:12.378,0,0,0,0,0,0,0,0,0,
4.363601, 11:36:12.409,0,0,0,0,0,0,0,0,0,
4.39387, 11:36:12.439,0,0,0,0,0,0,0,0,0,
4.425397, 11:36:12.471,0,0,0,0,0,0,0,0,0,
4.456421, 11:36:12.502,0,0,0,0,0,0,0,0,0,
4.491533, 11:36:12.538,0,0,0,0,0,0,0,0,0,
4.521072, 11:36:12.567,0,0,0,0,0,0,0,0,0,
4.550646, 11:36:12.596,0,0,0,0,0,0,0,0,0,
4.594975, 11:36:12.641,0,0,0,0,0,0,0,0,0,
4.637346, 11:36:12.684,0,0,0,0,0,0,0,0,0,
4.667135, 11:36:12.714,0,0,0,0,0,0,0,0,0,
4.704765, 11:36:12.751,0,0,0,0,0,0,0,0,0,
4.737038, 11:36:12.782,0,0,0,0,0,0,0,0,0,
4.768762, 11:36:12.815,0,0,0,0,0,0,0,0,0,
4.799395, 11:36:12.845,0,0,0,0,0,0,0,0,0,
4.828878, 11:36:12.875,0,0,0,0,0,0,0,0,0,
4.858808, 11:36:12.905,0,0,0,0,0,0,0,0,0,
4.901774, 11:36:12.950,0,0,0,0,0,0,0,0,0,
4.938206, 11:36:12.984,0,0,0,0,0,0,0,0,0,
4.969013, 11:36:13.016,0,0,0,0,0,0,0,0,0,
5.0059, 11:36:13.052,0,0,0,0,0,0,0,0,0,
5.04599, 11:36:13.094,0,0,0,0,0,0,0,0,0,
5.083694, 11:36:13.130,0,0,0,0,0,0,0,0,0,
5.122509, 11:36:13.169,0,0,0,0,0,0,0,0,0,
5.157053, 11:36:13.202,0,0,0,0,0,0,0,0,0,
5.192077, 11:36:13.239,0,0,0,0,0,0,0,0,0,
5.224038, 11:36:13.271,0,0,0,0,0,0,0,0,0,
5.256089, 11:36:13.302,0,0,0,0,0,0,0,0,0,
5.287239, 11:36:13.335,0,0,0,0,0,0,0,0,0,
5.319205, 11:36:13.364,0,0,0,0,0,0,0,0,0,
5.350207, 11:36:13.397,0,0,0,0,0,0,0,0,0,
5.383451, 11:36:13.429,0,0,0,0,0,0,0,0,0,
5.4154, 11:36:13.460,0,0,0,0,0,0,0,0,0,
5.447521, 11:36:13.494,0,0,0,0,0,0,0,0,0,
5.484875, 11:36:13.532,0,0,0,0,0,0,0,0,0,
5.521491, 11:36:13.569,0,0,0,0,0,0,0,0,0,
5.553554, 11:36:13.600,0,0,0,0,0,0,0,0,0,
5.589124, 11:36:13.636,0,0,0,0,0,0,0,0,0,
5.622973, 11:36:13.669,0,0,0,0,0,0,0,0,0,
5.654036, 11:36:13.699,0,0,0,0,0,0,0,0,0,
5.685369, 11:36:13.732,0,0,0,0,0,0,0,0,0,
5.718963, 11:36:13.765,0,0,0,0,0,0,0,0,0,
5.749561, 11:36:13.796,0,0,0,0,0,0,0,0,0,
5.782566, 11:36:13.830,0,0,0,0,0,0,0,0,0,
5.818903, 11:36:13.866,0,0,0,0,0,0,0,0,0,
5.851082, 11:36:13.897,0,0,0,0,0,0,0,0,0,
5.88337, 11:36:13.930,0,0,0,0,0,0,0,0,0,
5.916827, 11:36:13.962,0,0,0,0,0,0,0,0,0,
5.949106, 11:36:13.996,0,0,0,0,0,0,0,0,0,
5.980732, 11:36:14.027,0,0,0,0,0,0,0,0,0,
6.015596, 11:36:14.061,0,0,0,0,0,0,0,0,0,
6.046561, 11:36:14.093,0,0,0,0,0,0,0,0,0,
6.080168, 11:36:14.127,0,0,0,0,0,0,0,0,0,
6.116427, 11:36:14.163,0,0,0,0,0,0,0,0,0,
6.151631, 11:36:14.199,0,0,0,0,0,0,0,0,0,
6.18722, 11:36:14.237,0,0,0,0,0,0,0,0,0,
6.228426, 11:36:14.275,0,0,0,0,0,0,0,0,0,
6.266119, 11:36:14.312,0,0,0,0,0,0,0,0,0,
6.300001, 11:36:14.345,0,0,0,0,0,0,0,0,0,
6.334082, 11:36:14.380,0,0,0,0,0,0,0,0,0,
6.366994, 11:36:14.413,0,0,0,0,0,0,0,0,0,
6.39755, 11:36:14.443,0,0,0,0,0,0,0,0,0,
6.434424, 11:36:14.481,0,0,0,0,0,0,0,0,0,
6.469819, 11:36:14.517,0,0,0,0,0,0,0,0,0,
6.503141, 11:36:14.550,0,0,0,0,0,0,0,0,0,
6.534609, 11:36:14.581,0,0,0,0,0,0,0,0,0,
6.569444, 11:36:14.616,0,0,0,0,0,0,0,0,0,
6.603842, 11:36:14.650,0,0,0,0,0,0,0,0,0,
6.635954, 11:36:14.681,0,0,0,0,0,0,0,0,0,
6.667156, 11:36:14.713,0,0,0,0,0,0,0,0,0,
6.697807, 11:36:14.744,0,0,0,0,0,0,0,0,0,
6.735814, 11:36:14.782,0,0,0,0,0,0,0,0,0,
6.769313, 11:36:14.817,0,0,0,0,0,0,0,0,0,
6.804322, 11:36:14.851,0,0,0,0,0,0,0,0,0,
6.836864, 11:36:14.883,0,0,0,0,0,0,0,0,0,
6.8692, 11:36:14.916,0,0,0,0,0,0,0,0,0,
6.903936, 11:36:14.950,0,0,0,0,0,0,0,0,0,
6.93887, 11:36:14.985,0,0,0,0,0,0,0,0,0,
6.970881, 11:36:15.017,0,0,0,0,0,0,0,0,0,
7.002801, 11:36:15.049,0,0,0,0,0,0,0,0,0,
7.033288, 11:36:15.078,0,0,0,0,0,0,0,0,0,
7.064489, 11:36:15.111,0,0,0,0,0,0,0,0,0,
7.100325, 11:36:15.151,0,0,0,0,0,0,0,0,0,
7.136879, 11:36:15.182,0,0,0,0,0,0,0,0,0,
7.166483, 11:36:15.213,0,0,0,0,0,0,0,0,0,
7.1976, 11:36:15.243,0,0,0,0,0,0,0,0,0,
7.230199, 11:36:15.277,0,0,0,0,0,0,0,0,0,
7.26325, 11:36:15.310,0,0,0,0,0,0,0,0,0,
7.299578, 11:36:15.346,0,0,0,0,0,0,0,0,0,
7.338472, 11:36:15.385,0,0,0,0,0,0,0,0,0,
7.376429, 11:36:15.423,0,0,0,0,0,0,0,0,0,
7.416414, 11:36:15.463,0,0,0,0,0,0,0,0,0,
7.466016, 11:36:15.513,0,0,0,0,0,0,0,0,0,
7.500344, 11:36:15.546,0,0,0,0,0,0,0,0,0,
7.533195, 11:36:15.579,0,0,0,0,0,0,0,0,0,
7.563434, 11:36:15.609,0,0,0,0,0,0,0,0,0,
7.600852, 11:36:15.647,0,0,0,0,0,0,0,0,0,
7.633375, 11:36:15.678,0,0,0,0,0,0,0,0,0,
7.665087, 11:36:15.711,0,0,0,0,0,0,0,0,0,
7.696875, 11:36:15.742,0,0,0,0,0,0,0,0,0,
7.727252, 11:36:15.773,0,0,0,0,0,0,0,0,0,
7.760095, 11:36:15.807,0,0,0,0,0,0,0,0,0,
7.793159, 11:36:15.839,0,0,0,0,0,0,0,0,0,
7.82576, 11:36:15.872,0,0,0,0,0,0,0,0,0,
7.859163, 11:36:15.905,0,0,0,0,0,0,0,0,0,
7.889153, 11:36:15.936,0,0,0,0,0,0,0,0,0,
7.920612, 11:36:15.972,0,0,0,0,0,0,0,0,0,
7.959825, 11:36:16.005,0,0,0,0,0,0,0,0,0,
7.993573, 11:36:16.039,0,0,0,0,0,0,0,0,0,
8.024992, 11:36:16.071,0,0,0,0,0,0,0,0,0,
8.055309, 11:36:16.101,0,0,0,0,0,0,0,0,0,
8.086535, 11:36:16.133,0,0,0,0,0,0,0,0,0,
8.132876, 11:36:16.180,0,0,0,0,0,0,0,0,0,
8.166451, 11:36:16.212,0,0,0,0,0,0,0,0,0,
8.200663, 11:36:16.248,0,0,0,0,0,0,0,0,0,
8.233825, 11:36:16.280,0,0,0,0,0,0,0,0,0,
8.265578, 11:36:16.311,0,0,0,0,0,0,0,0,0,
8.299959, 11:36:16.345,0,0,0,0,0,0,0,0,0,
8.335171, 11:36:16.381,0,0,0,0,0,0,0,0,0,
8.369469, 11:36:16.416,0,0,0,0,0,0,0,0,0,
8.407187, 11:36:16.454,0,0,0,0,0,0,0,0,0,
8.441268, 11:36:16.488,0,0,0,0,0,0,0,0,0,
8.483201, 11:36:16.531,0,0,0,0,0,0,0,0,0,
8.535807, 11:36:16.583,0,0,0,0,0,0,0,0,0,
8.574023, 11:36:16.621,0,0,0,0,0,0,0,0,0,
8.611094, 11:36:16.657,0,0,0,0,0,0,0,0,0,
8.645058, 11:36:16.690,0,0,0,0,0,0,0,0,0,
8.680825, 11:36:16.727,0,0,0,0,0,0,0,0,0,
8.718813, 11:36:16.765,0,0,0,0,0,0,0,0,0,
8.750952, 11:36:16.797,0,0,0,0,0,0,0,0,0,
8.783934, 11:36:16.836,0,0,0,0,0,0,0,0,0,
8.827672, 11:36:16.874,0,0,0,0,0,0,0,0,0,
8.884302, 11:36:16.931,0,0,0,0,0,0,0,0,0,
8.919018, 11:36:16.964,0,0,0,0,0,0,0,0,0,
8.95183, 11:36:16.998,0,0,0,0,0,0,0,0,0,
8.99228, 11:36:17.038,0,0,0,0,0,0,0,0,0,
9.032613, 11:36:17.079,0,0,0,0,0,0,0,0,0,
9.065921, 11:36:17.113,0,0,0,0,0,0,0,0,0,
9.0989, 11:36:17.143,0,0,0,0,0,0,0,0,0,
9.131956, 11:36:17.178,0,0,0,0,0,0,0,0,0,
9.168266, 11:36:17.215,0,0,0,0,0,0,0,0,0,
9.205151, 11:36:17.251,0,0,0,0,0,0,0,0,0,
9.240168, 11:36:17.287,0,0,0,0,0,0,0,0,0,
9.273893, 11:36:17.319,0,0,0,0,0,0,0,0,0,
9.306563, 11:36:17.352,0,0,0,0,0,0,0,0,0,
9.340919, 11:36:17.387,0,0,0,0,0,0,0,0,0,
9.376864, 11:36:17.421,0,0,0,0,0,0,0,0,0,
9.410028, 11:36:17.456,0,0,0,0,0,0,0,0,0,
9.445136, 11:36:17.491,0,0,0,0,0,0,0,0,0,
9.481627, 11:36:17.529,0,0,0,0,0,0,0,0,0,
9.51886, 11:36:17.565,0,0,0,0,0,0,0,0,0,
9.552823, 11:36:17.599,0,0,0,0,0,0,0,0,0,
9.585605, 11:36:17.632,0,0,0,0,0,0,0,0,0,
9.619002, 11:36:17.666,0,0,0,0,0,0,0,0,0,
9.665708, 11:36:17.713,0,0,0,0,0,0,0,0,0,
9.713198, 11:36:17.760,0,0,0,0,0,0,0,0,0,
9.756953, 11:36:17.803,0,0,0,0,0,0,0,0,0,
9.795283, 11:36:17.842,0,0,0,0,0,0,0,0,0,
9.828708, 11:36:17.875,0,0,0,0,0,0,0,0,0,
9.865088, 11:36:17.910,0,0,0,0,0,0,0,0,0,
9.898995, 11:36:17.945,0,0,0,0,0,0,0,0,0,
9.933834, 11:36:17.980,0,0,0,0,0,0,0,0,0,
9.968247, 11:36:18.015,0,0,0,0,0,0,0,0,0,
10.00001, 11:36:18.047,0,0,0,0,0,0,0,0,0,
10.03503, 11:36:18.080,0,0,0,0,0,0,0,0,0,
10.06951, 11:36:18.116,0,0,0,0,0,0,0,0,0,
10.1056, 11:36:18.152,0,0,0,0,0,0,0,0,0,
10.13973, 11:36:18.186,0,0,0,0,0,0,0,0,0,
10.17514, 11:36:18.221,0,0,0,0,0,0,0,0,0,
10.2112, 11:36:18.258,0,0,0,0,0,0,0,0,0,
10.24777, 11:36:18.294,0,0,0,0,0,0,0,0,0,
10.28598, 11:36:18.332,0,0,0,0,0,0,0,0,0,
10.32011, 11:36:18.367,0,0,0,0,0,0,0,0,0,
10.3542, 11:36:18.399,0,0,0,0,0,0,0,0,0,
10.38887, 11:36:18.435,0,0,0,0,0,0,0,0,0,
10.42644, 11:36:18.474,0,0,0,0,0,0,0,0,0,
10.46359, 11:36:18.510,0,0,0,0,0,0,0,0,0,
10.5026, 11:36:18.549,0,0,0,0,0,0,0,0,0,
10.54702, 11:36:18.594,0,0,0,0,0,0,0,0,0,
10.58583, 11:36:18.633,0,0,0,0,0,0,0,0,0,
10.62535, 11:36:18.671,0,0,0,0,0,0,0,0,0,
10.65815, 11:36:18.703,0,0,0,0,0,0,0,0,0,
10.69078, 11:36:18.736,0,0,0,0,0,0,0,0,0,
10.72847, 11:36:18.775,0,0,0,0,0,0,0,0,0,
10.76521, 11:36:18.811,0,0,0,0,0,0,0,0,0,
10.80648, 11:36:18.855,0,0,0,0,0,0,0,0,0,
10.84593, 11:36:18.892,0,0,0,0,0,0,0,0,0,
10.88763, 11:36:18.934,0,0,0,0,0,0,0,0,0,
10.92636, 11:36:18.973,0,0,0,0,0,0,0,0,0,
10.96168, 11:36:19.008,0,0,0,0,0,0,0,0,0,
10.99246, 11:36:19.038,0,0,0,0,0,0,0,0,0,
11.02299, 11:36:19.069,0,0,0,0,0,0,0,0,0,
11.06255, 11:36:19.109,0,0,0,0,0,0,0,0,0,
11.09542, 11:36:19.140,0,0,0,0,0,0,0,0,0,
11.12523, 11:36:19.172,0,0,0,0,0,0,0,0,0,
11.1572, 11:36:19.203,0,0,0,0,0,0,0,0,0,
11.18898, 11:36:19.235,0,0,0,0,0,0,0,0,0,
11.21967, 11:36:19.264,0,0,0,0,0,0,0,0,0,
11.2513, 11:36:19.297,0,0,0,0,0,0,0,0,0,
11.28513, 11:36:19.331,0,0,0,0,0,0,0,0,0,
11.31496, 11:36:19.360,0,0,0,0,0,0,0,0,0,
11.34436, 11:36:19.390,0,0,0,0,0,0,0,0,0,
11.37972, 11:36:19.425,0,0,0,0,0,0,0,0,0,
11.42228, 11:36:19.470,0,0,0,0,0,0,0,0,0,
11.45651, 11:36:19.502,0,0,0,0,0,0,0,0,0,
11.48849, 11:36:19.535,0,0,0,0,0,0,0,0,0,
11.5193, 11:36:19.565,0,0,0,0,0,0,0,0,0,
11.54906, 11:36:19.595,0,0,0,0,0,0,0,0,0,
11.58204, 11:36:19.628,0,0,0,0,0,0,0,0,0,
11.61722, 11:36:19.662,0,0,0,0,0,0,0,0,0,
11.64497, 11:36:19.691,0,0,0,0,0,0,0,0,0,
11.67359, 11:36:19.719,0,0,0,0,0,0,0,0,0,
11.70415, 11:36:19.750,0,0,0,0,0,0,0,0,0,
11.73812, 11:36:19.783,0,0,0,0,0,0,0,0,0,
11.76982, 11:36:19.817,0,0,0,0,0,0,0,0,0,
11.80003, 11:36:19.846,0,0,0,0,0,0,0,0,0,
11.83172, 11:36:19.878,0,0,0,0,0,0,0,0,0,
11.86214, 11:36:19.909,0,0,0,0,0,0,0,0,0,
11.89522, 11:36:19.939,0,0,0,0,0,0,0,0,0,
11.92712, 11:36:19.973,0,0,0,0,0,0,0,0,0,
11.95751, 11:36:20.003,0,0,0,0,0,0,0,0,0,
11.99146, 11:36:20.039,0,0,0,0,0,0,0,0,0,
12.02995, 11:36:20.077,0,0,0,0,0,0,0,0,0,
12.07694, 11:36:20.123,0,0,0,0,0,0,0,0,0,
12.11215, 11:36:20.159,0,0,0,0,0,0,0,0,0,
12.14442, 11:36:20.191,0,0,0,0,0,0,0,0,0,
12.17929, 11:36:20.225,0,0,0,0,0,0,0,0,0,
12.22134, 11:36:20.268,0,0,0,0,0,0,0,0,0,
12.25517, 11:36:20.300,0,0,0,0,0,0,0,0,0,
12.28736, 11:36:20.334,0,0,0,0,0,0,0,0,0,
12.31887, 11:36:20.365,0,0,0,0,0,0,0,0,0,
12.38087, 11:36:20.429,0,0,0,0,0,0,0,0,0,
12.41624, 11:36:20.461,0,0,0,0,0,0,0,0,0,
12.45254, 11:36:20.499,0,0,0,0,0,0,0,0,0,
12.49272, 11:36:20.539,0,0,0,0,0,0,0,0,0,
12.53481, 11:36:20.581,0,0,0,0,0,0,0,0,0,
12.56837, 11:36:20.615,0,0,0,0,0,0,0,0,0,
12.59936, 11:36:20.644,0,0,0,0,0,0,0,0,0,
12.62925, 11:36:20.675,0,0,0,0,0,0,0,0,0,
12.66061, 11:36:20.706,0,0,0,0,0,0,0,0,0,
12.6913, 11:36:20.737,0,0,0,0,0,0,0,0,0,
12.72628, 11:36:20.772,0,0,0,0,0,0,0,0,0,
12.76174, 11:36:20.808,0,0,0,0,0,0,0,0,0,
12.79577, 11:36:20.841,0,0,0,0,0,0,0,0,0,
12.82915, 11:36:20.876,0,0,0,0,0,0,0,0,0,
12.86335, 11:36:20.910,0,0,0,0,0,0,0,0,0,
12.89918, 11:36:20.945,0,0,0,0,0,0,0,0,0,
12.9344, 11:36:20.981,0,0,0,0,0,0,0,0,0,
12.96908, 11:36:21.015,0,0,0,0,0,0,0,0,0,
13.00132, 11:36:21.053,0,0,0,0,0,0,0,0,0,
13.04124, 11:36:21.087,0,0,0,0,0,0,0,0,0,
13.0769, 11:36:21.122,0,0,0,0,0,0,0,0,0,
13.11123, 11:36:21.157,0,0,0,0,0,0,0,0,0,
13.15205, 11:36:21.199,0,0,0,0,0,0,0,0,0,
13.19287, 11:36:21.240,0,0,0,0,0,0,0,0,0,
13.24218, 11:36:21.290,0,0,0,0,0,0,0,0,0,
13.27682, 11:36:21.322,0,0,0,0,0,0,0,0,0,
13.30938, 11:36:21.356,0,0,0,0,0,0,0,0,0,
13.35017, 11:36:21.397,0,0,0,0,0,0,0,0,0,
13.39004, 11:36:21.437,0,0,0,0,0,0,0,0,0,
13.43027, 11:36:21.476,0,0,0,0,0,0,0,0,0,
13.46393, 11:36:21.511,0,0,0,0,0,0,0,0,0,
13.49792, 11:36:21.543,0,0,0,0,0,0,0,0,0,
13.52968, 11:36:21.576,0,0,0,0,0,0,0,0,0,
13.56405, 11:36:21.610,0,0,0,0,0,0,0,0,0,
13.59801, 11:36:21.644,0,0,0,0,0,0,0,0,0,
13.63502, 11:36:21.681,0,0,0,0,0,0,0,0,0,
13.66716, 11:36:21.715,0,0,0,0,0,0,0,0,0,
13.70319, 11:36:21.750,0,0,0,0,0,0,0,0,0,
13.7362, 11:36:21.781,0,0,0,0,0,0,0,0,0,
13.76871, 11:36:21.814,0,0,0,0,0,0,0,0,0,
13.80069, 11:36:21.847,0,0,0,0,0,0,0,0,0,
13.83607, 11:36:21.881,0,0,0,0,0,0,0,0,0,
13.87247, 11:36:21.918,0,0,0,0,0,0,0,0,0,
13.90615, 11:36:21.952,0,0,0,0,0,0,0,0,0,
13.94029, 11:36:21.986,0,0,0,0,0,0,0,0,0,
13.97416, 11:36:22.020,0,0,0,0,0,0,0,0,0,
14.01278, 11:36:22.060,0,0,0,0,0,0,0,0,0,
14.05519, 11:36:22.102,0,0,0,0,0,0,0,0,0,
14.08927, 11:36:22.136,0,0,0,0,0,0,0,0,0,
14.1219, 11:36:22.168,0,0,0,0,0,0,0,0,0,
14.15477, 11:36:22.200,0,0,0,0,0,0,0,0,0,
14.18775, 11:36:22.234,0,0,0,0,0,0,0,0,0,
14.22065, 11:36:22.266,0,0,0,0,0,0,0,0,0,
14.25828, 11:36:22.303,0,0,0,0,0,0,0,0,0,
14.29341, 11:36:22.340,0,0,0,0,0,0,0,0,0,
14.3283, 11:36:22.375,0,0,0,0,0,0,0,0,0,
14.36805, 11:36:22.415,0,0,0,0,0,0,0,0,0,
14.40878, 11:36:22.455,0,0,0,0,0,0,0,0,0,
14.44729, 11:36:22.494,0,0,0,0,0,0,0,0,0,
14.48458, 11:36:22.530,0,0,0,0,0,0,0,0,0,
14.51776, 11:36:22.562,0,0,0,0,0,0,0,0,0,
14.54894, 11:36:22.595,0,0,0,0,0,0,0,0,0,
14.58661, 11:36:22.632,0,0,0,0,0,0,0,0,0,
14.62859, 11:36:22.675,0,0,0,0,0,0,0,0,0,
14.66215, 11:36:22.708,0,0,0,0,0,0,0,0,0,
14.69506, 11:36:22.740,0,0,0,0,0,0,0,0,0,
14.73117, 11:36:22.777,0,0,0,0,0,0,0,0,0,
14.76197, 11:36:22.808,0,0,0,0,0,0,0,0,0,
14.7966, 11:36:22.842,0,0,0,0,0,0,0,0,0,
14.82974, 11:36:22.876,0,0,0,0,0,0,0,0,0,
14.86113, 11:36:22.907,0,0,0,0,0,0,0,0,0,
14.89412, 11:36:22.939,0,0,0,0,0,0,0,0,0,
14.92786, 11:36:22.974,0,0,0,0,0,0,0,0,0,
14.96291, 11:36:23.011,0,0,0,0,0,0,0,0,0,
14.99862, 11:36:23.043,0,0,0,0,0,0,0,0,0,
15.03005, 11:36:23.076,0,0,0,0,0,0,0,0,0,
15.06437, 11:36:23.110,0,0,0,0,0,0,0,0,0,
15.10429, 11:36:23.151,0,0,0,0,0,0,0,0,0,
15.14785, 11:36:23.194,0,0,0,0,0,0,0,0,0,
15.18139, 11:36:23.229,0,0,0,0,0,0,0,0,0,
15.2135, 11:36:23.260,0,0,0,0,0,0,0,0,0,
15.24514, 11:36:23.291,0,0,0,0,0,0,0,0,0,
15.2783, 11:36:23.323,0,0,0,0,0,0,0,0,0,
15.31149, 11:36:23.357,0,0,0,0,0,0,0,0,0,
15.3473, 11:36:23.393,0,0,0,0,0,0,0,0,0,
15.38036, 11:36:23.427,0,0,0,0,0,0,0,0,0,
15.41393, 11:36:23.459,0,0,0,0,0,0,0,0,0,
15.44537, 11:36:23.491,0,0,0,0,0,0,0,0,0,
15.48481, 11:36:23.532,0,0,0,0,0,0,0,0,0,
15.52422, 11:36:23.572,0,0,0,0,0,0,0,0,0,
15.57435, 11:36:23.621,0,0,0,0,0,0,0,0,0,
15.60646, 11:36:23.653,0,0,0,0,0,0,0,0,0,
15.64035, 11:36:23.686,0,0,0,0,0,0,0,0,0,
15.67525, 11:36:23.720,0,0,0,0,0,0,0,0,0,
15.70487, 11:36:23.751,0,0,0,0,0,0,0,0,0,
15.74682, 11:36:23.793,0,0,0,0,0,0,0,0,0,
15.79037, 11:36:23.837,0,0,0,0,0,0,0,0,0,
15.8273, 11:36:23.874,0,0,0,0,0,0,0,0,0,
15.86452, 11:36:23.913,0,0,0,0,0,0,0,0,0,
15.90024, 11:36:23.948,0,0,0,0,0,0,0,0,0,
15.93497, 11:36:23.980,0,0,0,0,0,0,0,0,0,
15.96673, 11:36:24.014,0,0,0,0,0,0,0,0,0,
16.00574, 11:36:24.052,0,0,0,0,0,0,0,0,0,
16.03977, 11:36:24.085,0,0,0,0,0,0,0,0,0,
16.07033, 11:36:24.117,0,0,0,0,0,0,0,0,0,
16.10008, 11:36:24.147,0,0,0,0,0,0,0,0,0,
16.13469, 11:36:24.180,0,0,0,0,0,0,0,0,0,
16.16648, 11:36:24.212,0,0,0,0,0,0,0,0,0,
16.2009, 11:36:24.246,0,0,0,0,0,0,0,0,0,
16.23129, 11:36:24.276,0,0,0,0,0,0,0,0,0,
16.26268, 11:36:24.308,0,0,0,0,0,0,0,0,0,
16.29589, 11:36:24.341,0,0,0,0,0,0,0,0,0,
16.32907, 11:36:24.375,0,0,0,0,0,0,0,0,0,
16.36139, 11:36:24.408,0,0,0,0,0,0,0,0,0,
16.39604, 11:36:24.441,0,0,0,0,0,0,0,0,0,
16.4271, 11:36:24.473,0,0,0,0,0,0,0,0,0,
16.45666, 11:36:24.502,0,0,0,0,0,0,0,0,0,
16.48943, 11:36:24.537,0,0,0,0,0,0,0,0,0,
16.52177, 11:36:24.568,0,0,0,0,0,0,0,0,0,
16.55083, 11:36:24.597,0,0,0,0,0,0,0,0,0,
16.5803, 11:36:24.626,0,0,0,0,0,0,0,0,0,
16.61062, 11:36:24.656,0,0,0,0,0,0,0,0,0,
16.64706, 11:36:24.694,0,0,0,0,0,0,0,0,0,
16.68348, 11:36:24.730,0,0,0,0,0,0,0,0,0,
16.72895, 11:36:24.776,0,0,0,0,0,0,0,0,0,
16.7621, 11:36:24.809,0,0,0,0,0,0,0,0,0,
16.79511, 11:36:24.839,0,0,0,0,0,0,0,0,0,
16.82549, 11:36:24.871,0,0,0,0,0,0,0,0,0,
16.85765, 11:36:24.902,0,0,0,0,0,0,0,0,0,
16.88537, 11:36:24.931,0,0,0,0,0,0,0,0,0,
16.91506, 11:36:24.960,0,0,0,0,0,0,0,0,0,
16.94588, 11:36:24.991,0,0,0,0,0,0,0,0,0,
16.97692, 11:36:25.022,0,0,0,0,0,0,0,0,0,
17.00583, 11:36:25.051,0,0,0,0,0,0,0,0,0,
17.03506, 11:36:25.080,0,0,0,0,0,0,0,0,0,
17.06754, 11:36:25.113,0,0,0,0,0,0,0,0,0,
17.09946, 11:36:25.145,0,0,0,0,0,0,0,0,0,
17.12966, 11:36:25.176,0,0,0,0,0,0,0,0,0,
17.16684, 11:36:25.214,0,0,0,0,0,0,0,0,0,
17.19864, 11:36:25.243,0,0,0,0,0,0,0,0,0,
17.22722, 11:36:25.273,0,0,0,0,0,0,0,0,0,
17.25887, 11:36:25.304,0,0,0,0,0,0,0,0,0,
17.29384, 11:36:25.341,0,0,0,0,0,0,0,0,0,
17.3254, 11:36:25.371,0,0,0,0,0,0,0,0,0,
17.3577, 11:36:25.404,0,0,0,0,0,0,0,0,0,
17.39358, 11:36:25.440,0,0,0,0,0,0,0,0,0,
17.42615, 11:36:25.472,0,0,0,0,0,0,0,0,0,
17.46014, 11:36:25.506,0,0,0,0,0,0,0,0,0,
17.49647, 11:36:25.542,0,0,0,0,0,0,0,0,0,
17.52736, 11:36:25.575,0,0,0,0,0,0,0,0,0,
17.55935, 11:36:25.604,0,0,0,0,0,0,0,0,0,
17.59016, 11:36:25.636,0,0,0,0,0,0,0,0,0,
17.62282, 11:36:25.670,0,0,0,0,0,0,0,0,0,
17.65458, 11:36:25.700,0,0,0,0,0,0,0,0,0,
17.68438, 11:36:25.730,0,0,0,0,0,0,0,0,0,
17.71767, 11:36:25.763,0,0,0,0,0,0,0,0,0,
17.74984, 11:36:25.796,0,0,0,0,0,0,0,0,0,
17.78465, 11:36:25.830,0,0,0,0,0,0,0,0,0,
17.82137, 11:36:25.868,0,0,0,0,0,0,0,0,0,
17.85707, 11:36:25.902,0,0,0,0,0,0,0,0,0,
17.89749, 11:36:25.945,0,0,0,0,0,0,0,0,0,
17.93631, 11:36:25.984,0,0,0,0,0,0,0,0,0,
17.97525, 11:36:26.021,0,0,0,0,0,0,0,0,0,
18.00662, 11:36:26.053,0,0,0,0,0,0,0,0,0,
18.0379, 11:36:26.084,0,0,0,0,0,0,0,0,0,
18.06915, 11:36:26.116,0,0,0,0,0,0,0,0,0,
18.10291, 11:36:26.149,0,0,0,0,0,0,0,0,0,
18.13826, 11:36:26.183,0,0,0,0,0,0,0,0,0,
18.16841, 11:36:26.215,0,0,0,0,0,0,0,0,0,
18.20005, 11:36:26.246,0,0,0,0,0,0,0,0,0,
18.2317, 11:36:26.277,0,0,0,0,0,0,0,0,0,
18.26308, 11:36:26.310,0,0,0,0,0,0,0,0,0,
18.2966, 11:36:26.342,0,0,0,0,0,0,0,0,0,
18.32692, 11:36:26.373,0,0,0,0,0,0,0,0,0,
18.36072, 11:36:26.407,0,0,0,0,0,0,0,0,0,
18.39151, 11:36:26.437,0,0,0,0,0,0,0,0,0,
18.42497, 11:36:26.471,0,0,0,0,0,0,0,0,0,
18.45915, 11:36:26.504,0,0,0,0,0,0,0,0,0,
18.49264, 11:36:26.539,0,0,0,0,0,0,0,0,0,
18.52391, 11:36:26.570,0,0,0,0,0,0,0,0,0,
18.5562, 11:36:26.602,0,0,0,0,0,0,0,0,0,
18.59508, 11:36:26.642,0,0,0,0,0,0,0,0,0,
18.63194, 11:36:26.678,0,0,0,0,0,0,0,0,0,
18.66358, 11:36:26.710,0,0,0,0,0,0,0,0,0,
18.6954, 11:36:26.740,0,0,0,0,0,0,0,0,0,
18.72435, 11:36:26.770,0,0,0,0,0,0,0,0,0,
18.76317, 11:36:26.810,0,0,0,0,0,0,0,0,0,
18.79829, 11:36:26.843,0,0,0,0,0,0,0,0,0,
18.82894, 11:36:26.874,0,0,0,0,0,0,0,0,0,
18.85882, 11:36:26.904,0,0,0,0,0,0,0,0,0,
18.89115, 11:36:26.938,0,0,0,0,0,0,0,0,0,
18.92787, 11:36:26.973,0,0,0,0,0,0,0,0,0,
18.9632, 11:36:27.010,0,0,0,0,0,0,0,0,0,
18.99944, 11:36:27.046,0,0,0,0,0,0,0,0,0,
19.04329, 11:36:27.091,0,0,0,0,0,0,0,0,0,
19.08011, 11:36:27.127,0,0,0,0,0,0,0,0,0,
19.11684, 11:36:27.162,0,0,0,0,0,0,0,0,0,
19.14731, 11:36:27.195,0,0,0,0,0,0,0,0,0,
19.17915, 11:36:27.225,0,0,0,0,0,0,0,0,0,
19.21158, 11:36:27.257,0,0,0,0,0,0,0,0,0,
19.24752, 11:36:27.293,0,0,0,0,0,0,0,0,0,
19.28116, 11:36:27.327,0,0,0,0,0,0,0,0,0,
19.31321, 11:36:27.358,0,0,0,0,0,0,0,0,0,
19.34368, 11:36:27.390,0,0,0,0,0,0,0,0,0,
19.37637, 11:36:27.422,0,0,0,0,0,0,0,0,0,
19.40902, 11:36:27.456,0,0,0,0,0,0,0,0,0,
19.44305, 11:36:27.489,0,0,0,0,0,0,0,0,0,
19.52627, 11:36:27.575,0,0,0,0,0,0,0,0,0,
19.56248, 11:36:27.609,0,0,0,0,0,0,0,0,0,
19.59526, 11:36:27.640,0,0,0,0,0,0,0,0,0,
19.63122, 11:36:27.677,0,0,0,0,0,0,0,0,0,
19.66183, 11:36:27.708,0,0,0,0,0,0,0,0,0,
19.69793, 11:36:27.743,0,0,0,0,0,0,0,0,0,
19.72946, 11:36:27.776,0,0,0,0,0,0,0,0,0,
19.7632, 11:36:27.808,0,0,0,0,0,0,0,0,0,
19.79357, 11:36:27.839,0,0,0,0,0,0,0,0,0,
19.82371, 11:36:27.870,0,0,0,0,0,0,0,0,0,
19.8546, 11:36:27.899,0,0,0,0,0,0,0,0,0,
19.88711, 11:36:27.933,0,0,0,0,0,0,0,0,0,
19.92225, 11:36:27.969,0,0,0,0,0,0,0,0,0,
19.95272, 11:36:27.998,0,0,0,0,0,0,0,0,0,
19.98232, 11:36:28.028,0,0,0,0,0,0,0,0,0,
20.01404, 11:36:28.060,0,0,0,0,0,0,0,0,0,
20.04698, 11:36:28.092,0,0,0,0,0,0,0,0,0,
20.07906, 11:36:28.124,0,0,0,0,0,0,0,0,0,
20.10873, 11:36:28.155,0,0,0,0,0,0,0,0,0,
20.14559, 11:36:28.191,0,0,0,0,0,0,0,0,0,
20.18061, 11:36:28.229,0,0,0,0,0,0,0,0,0,
20.22371, 11:36:28.271,0,0,0,0,0,0,0,0,0,
20.25742, 11:36:28.303,0,0,0,0,0,0,0,0,0,
20.28976, 11:36:28.336,0,0,0,0,0,0,0,0,0,
20.32124, 11:36:28.369,0,0,0,0,0,0,0,0,0,
20.35616, 11:36:28.401,0,0,0,0,0,0,0,0,0,
20.38749, 11:36:28.438,0,0,0,0,0,0,0,0,0,
20.42461, 11:36:28.470,0,0,0,0,0,0,0,0,0,
20.45488, 11:36:28.500,0,0,0,0,0,0,0,0,0,
20.48658, 11:36:28.534,0,0,0,0,0,0,0,0,0,
20.51879, 11:36:28.564,0,0,0,0,0,0,0,0,0,
20.54868, 11:36:28.594,0,0,0,0,0,0,0,0,0,
20.58204, 11:36:28.629,0,0,0,0,0,0,0,0,0,
20.61312, 11:36:28.658,0,0,0,0,0,0,0,0,0,
20.64149, 11:36:28.688,0,0,0,0,0,0,0,0,0,
20.67304, 11:36:28.719,0,0,0,0,0,0,0,0,0,
20.70341, 11:36:28.749,0,0,0,0,0,0,0,0,0,
20.73467, 11:36:28.780,0,0,0,0,0,0,0,0,0,
20.7636, 11:36:28.810,0,0,0,0,0,0,0,0,0,
20.79472, 11:36:28.839,0,0,0,0,0,0,0,0,0,
20.82595, 11:36:28.872,0,0,0,0,0,0,0,0,0,
20.85844, 11:36:28.904,0,0,0,0,0,0,0,0,0,
20.88854, 11:36:28.934,0,0,0,0,0,0,0,0,0,
20.91741, 11:36:28.962,0,0,0,0,0,0,0,0,0,
20.94656, 11:36:28.992,0,0,0,0,0,0,0,0,0,
20.97945, 11:36:29.025,0,0,0,0,0,0,0,0,0,
21.01535, 11:36:29.061,0,0,0,0,0,0,0,0,0,
21.04772, 11:36:29.094,0,0,0,0,0,0,0,0,0,
21.07787, 11:36:29.123,0,0,0,0,0,0,0,0,0,
21.10681, 11:36:29.154,0,0,0,0,0,0,0,0,0,
21.1376, 11:36:29.183,0,0,0,0,0,0,0,0,0,
21.17542, 11:36:29.221,0,0,0,0,0,0,0,0,0,
21.20739, 11:36:29.254,0,0,0,0,0,0,0,0,0,
21.23991, 11:36:29.285,0,0,0,0,0,0,0,0,0,
21.26996, 11:36:29.317,0,0,0,0,0,0,0,0,0,
21.30704, 11:36:29.354,0,0,0,0,0,0,0,0,0,
21.34414, 11:36:29.391,0,0,0,0,0,0,0,0,0,
21.38514, 11:36:29.431,0,0,0,0,0,0,0,0,0,
21.41479, 11:36:29.460,0,0,0,0,0,0,0,0,0,
21.44693, 11:36:29.493,0,0,0,0,0,0,0,0,0,
21.47912, 11:36:29.526,0,0,0,0,0,0,0,0,0,
21.5146, 11:36:29.561,0,0,0,0,0,0,0,0,0,
21.54708, 11:36:29.592,0,0,0,0,0,0,0,0,0,
21.57751, 11:36:29.623,0,0,0,0,0,0,0,0,0,
21.60684, 11:36:29.653,0,0,0,0,0,0,0,0,0,
21.63908, 11:36:29.684,0,0,0,0,0,0,0,0,0,
21.67185, 11:36:29.718,0,0,0,0,0,0,0,0,0,
21.70456, 11:36:29.750,0,0,0,0,0,0,0,0,0,
21.73451, 11:36:29.780,0,0,0,0,0,0,0,0,0,
21.76348, 11:36:29.809,0,0,0,0,0,0,0,0,0,
21.79443, 11:36:29.839,0,0,0,0,0,0,0,0,0,
21.82586, 11:36:29.872,0,0,0,0,0,0,0,0,0,
21.85885, 11:36:29.904,0,0,0,0,0,0,0,0,0,
21.89059, 11:36:29.937,0,0,0,0,0,0,0,0,0,
21.92026, 11:36:29.967,0,0,0,0,0,0,0,0,0,
21.95561, 11:36:30.001,0,0,0,0,0,0,0,0,0,
21.98571, 11:36:30.031,0,0,0,0,0,0,0,0,0,
22.01934, 11:36:30.064,0,0,0,0,0,0,0,0,0,
22.04768, 11:36:30.093,0,0,0,0,0,0,0,0,0,
22.07759, 11:36:30.123,0,0,0,0,0,0,0,0,0,
22.11281, 11:36:30.159,0,0,0,0,0,0,0,0,0,
22.1677, 11:36:30.215,0,0,0,0,0,0,0,0,0,
22.20252, 11:36:30.250,0,0,0,0,0,0,0,0,0,
22.23286, 11:36:30.279,0,0,0,0,0,0,0,0,0,
22.26451, 11:36:30.311,0,0,0,0,0,0,0,0,0,
22.29727, 11:36:30.343,0,0,0,0,0,0,0,0,0,
22.33251, 11:36:30.379,0,0,0,0,0,0,0,0,0,
22.36301, 11:36:30.409,0,0,0,0,0,0,0,0,0,
22.39376, 11:36:30.438,0,0,0,0,0,0,0,0,0,
22.42674, 11:36:30.472,0,0,0,0,0,0,0,0,0,
22.46455, 11:36:30.511,0,0,0,0,0,0,0,0,0,
22.50371, 11:36:30.554,0,0,0,0,0,0,0,0,0,
22.55403, 11:36:30.601,0,0,0,0,0,0,0,0,0,
22.58902, 11:36:30.636,0,0,0,0,0,0,0,0,0,
22.62941, 11:36:30.676,0,0,0,0,0,0,0,0,0,
22.66065, 11:36:30.707,0,0,0,0,0,0,0,0,0,
22.69017, 11:36:30.736,0,0,0,0,0,0,0,0,0,
22.71998, 11:36:30.766,0,0,0,0,0,0,0,0,0,
22.75233, 11:36:30.802,0,0,0,0,0,0,0,0,0,
22.78875, 11:36:30.834,0,0,0,0,0,0,0,0,0,
22.82134, 11:36:30.867,0,0,0,0,0,0,0,0,0,
22.85257, 11:36:30.897,0,0,0,0,0,0,0,0,0,
22.88233, 11:36:30.928,0,0,0,0,0,0,0,0,0,
22.91401, 11:36:30.960,0,0,0,0,0,0,0,0,0,
22.94624, 11:36:30.992,0,0,0,0,0,0,0,0,0,
22.98172, 11:36:31.029,0,0,0,0,0,0,0,0,0,
23.01255, 11:36:31.058,0,0,0,0,0,0,0,0,0,
23.04177, 11:36:31.087,0,0,0,0,0,0,0,0,0,
23.0767, 11:36:31.122,0,0,0,0,0,0,0,0,0,
23.14695, 11:36:31.196,0,0,0,0,0,0,0,0,0,
23.18576, 11:36:31.232,0,0,0,0,0,0,0,0,0,
23.21605, 11:36:31.261,0,0,0,0,0,0,0,0,0,
23.24636, 11:36:31.293,0,0,0,0,0,0,0,0,0,
23.27896, 11:36:31.325,0,0,0,0,0,0,0,0,0,
23.31114, 11:36:31.358,0,0,0,0,0,0,0,0,0,
23.34197, 11:36:31.389,0,0,0,0,0,0,0,0,0,
23.37287, 11:36:31.419,0,0,0,0,0,0,0,0,0,
23.40978, 11:36:31.456,0,0,0,0,0,0,0,0,0,
23.44395, 11:36:31.490,0,0,0,0,0,0,0,0,0,
23.47576, 11:36:31.521,0,0,0,0,0,0,0,0,0,
23.50707, 11:36:31.553,0,0,0,0,0,0,0,0,0,
23.53794, 11:36:31.583,0,0,0,0,0,0,0,0,0,
23.56858, 11:36:31.620,0,0,0,0,0,0,0,0,0,
23.609, 11:36:31.657,0,0,0,0,0,0,0,0,0,
23.65028, 11:36:31.698,0,0,0,0,0,0,0,0,0,
23.68867, 11:36:31.736,0,0,0,0,0,0,0,0,0,
23.72362, 11:36:31.770,0,0,0,0,0,0,0,0,0,
23.7588, 11:36:31.803,0,0,0,0,0,0,0,0,0,
23.78864, 11:36:31.834,0,0,0,0,0,0,0,0,0,
23.81907, 11:36:31.864,0,0,0,0,0,0,0,0,0,
23.85082, 11:36:31.897,0,0,0,0,0,0,0,0,0,
23.88104, 11:36:31.927,0,0,0,0,0,0,0,0,0,
23.91415, 11:36:31.959,0,0,0,0,0,0,0,0,0,
23.94603, 11:36:31.993,0,0,0,0,0,0,0,0,0,
23.97725, 11:36:32.022,0,0,0,0,0,0,0,0,0,
24.00768, 11:36:32.055,0,0,0,0,0,0,0,0,0,
24.0412, 11:36:32.088,0,0,0,0,0,0,0,0,0,
24.07805, 11:36:32.123,0,0,0,0,0,0,0,0,0,
24.10982, 11:36:32.157,0,0,0,0,0,0,0,0,0,
24.14123, 11:36:32.188,0,0,0,0,0,0,0,0,0,
24.17342, 11:36:32.219,0,0,0,0,0,0,0,0,0,
24.20584, 11:36:32.253,0,0,0,0,0,0,0,0,0,
24.23894, 11:36:32.284,0,0,0,0,0,0,0,0,0,
24.27073, 11:36:32.318,0,0,0,0,0,0,0,0,0,
24.30364, 11:36:32.351,0,0,0,0,0,0,0,0,0,
24.33447, 11:36:32.379,0,0,0,0,0,0,0,0,0,
24.37004, 11:36:32.416,0,0,0,0,0,0,0,0,0,
24.40544, 11:36:32.452,0,0,0,0,0,0,0,0,0,
24.45761, 11:36:32.504,0,0,0,0,0,0,0,0,0,
24.49066, 11:36:32.538,0,0,0,0,0,0,0,0,0,
24.52658, 11:36:32.573,0,0,0,0,0,0,0,0,0,
24.56048, 11:36:32.607,0,0,0,0,0,0,0,0,0,
24.59263, 11:36:32.638,0,0,0,0,0,0,0,0,0,
24.62236, 11:36:32.669,0,0,0,0,0,0,0,0,0,
24.6534, 11:36:32.698,0,0,0,0,0,0,0,0,0,
24.68297, 11:36:32.729,0,0,0,0,0,0,0,0,0,
24.71658, 11:36:32.761,0,0,0,0,0,0,0,0,0,
24.74984, 11:36:32.796,0,0,0,0,0,0,0,0,0,
24.78215, 11:36:32.828,0,0,0,0,0,0,0,0,0,
24.81766, 11:36:32.863,0,0,0,0,0,0,0,0,0,
24.85574, 11:36:32.903,0,0,0,0,0,0,0,0,0,
24.89402, 11:36:32.941,0,0,0,0,0,0,0,0,0,
24.93345, 11:36:32.979,0,0,0,0,0,0,0,0,0,
24.96651, 11:36:33.013,0,0,0,0,0,0,0,0,0,
25.00047, 11:36:33.047,0,0,0,0,0,0,0,0,0,
25.0309, 11:36:33.076,0,0,0,0,0,0,0,0,0,
25.06198, 11:36:33.108,0,0,0,0,0,0,0,0,0,
25.09477, 11:36:33.140,0,0,0,0,0,0,0,0,0,
25.12406, 11:36:33.171,0,0,0,0,0,0,0,0,0,
25.15675, 11:36:33.202,0,0,0,0,0,0,0,0,0,
25.19441, 11:36:33.240,0,0,0,0,0,0,0,0,0,
25.22653, 11:36:33.273,0,0,0,0,0,0,0,0,0,
25.25941, 11:36:33.304,0,0,0,0,0,0,0,0,0,
25.29056, 11:36:33.337,0,0,0,0,0,0,0,0,0,
25.32241, 11:36:33.369,0,0,0,0,0,0,0,0,0,
25.35302, 11:36:33.398,0,0,0,0,0,0,0,0,0,
25.38565, 11:36:33.431,0,0,0,0,0,0,0,0,0,
25.4181, 11:36:33.463,0,0,0,0,0,0,0,0,0,
25.44778, 11:36:33.495,0,0,0,0,0,0,0,0,0,
25.4791, 11:36:33.525,0,0,0,0,0,0,0,0,0,
25.53914, 11:36:33.585,0,0,0,0,0,0,0,0,0,
25.60876, 11:36:33.657,0,0,0,0,0,0,0,0,0,
Elapsed_Time, System_Time, Euler_Roll, Euler_Pitch, Euler_Yaw, Gyro_Roll, Gyro_Pitch, Gyro_Yaw, Accel_x, Accel_y, Accel_z
0.02, 11:41:17.185,0,0,0,0,0,0,0,0,0,
0.04, 11:41:17.307,0,0,0,0,0,0,0,0,0,
0.3733333, 11:41:18.112,0,0,0,0,0,0,0,0,0,
0.4709695, 11:41:18.200,0,0,0,0,0,0,0,0,0,
0.60451, 11:41:18.333,0,0,0,0,0,0,0,0,0,
0.6434191, 11:41:18.368,0,0,0,0,0,0,0,0,0,
0.6948411, 11:41:18.420,0,0,0,0,0,0,0,0,0,
0.7491699, 11:41:18.474,0,0,0,0,0,0,0,0,0,
0.7881018, 11:41:18.512,0,0,0,0,0,0,0,0,0,
0.8223446, 11:41:18.546,0,0,0,0,0,0,0,0,0,
0.857874, 11:41:18.580,0,0,0,0,0,0,0,0,0,
0.8949478, 11:41:18.619,0,0,0,0,0,0,0,0,0,
0.9314424, 11:41:18.656,0,0,0,0,0,0,0,0,0,
0.9629968, 11:41:18.687,0,0,0,0,0,0,0,0,0,
0.9924315, 11:41:18.715,0,0,0,0,0,0,0,0,0,
1.035065, 11:41:18.759,0,0,0,0,0,0,0,0,0,
1.067336, 11:41:18.792,0,0,0,0,0,0,0,0,0,
1.106123, 11:41:18.829,0,0,0,0,0,0,0,0,0,
1.137516, 11:41:18.861,0,0,0,0,0,0,0,0,0,
1.167469, 11:41:18.891,0,0,0,0,0,0,0,0,0,
1.198749, 11:41:18.921,0,0,0,0,0,0,0,0,0,
1.234183, 11:41:18.958,0,0,0,0,0,0,0,0,0,
1.265449, 11:41:18.989,0,0,0,0,0,0,0,0,0,
1.303719, 11:41:19.033,0,0,0,0,0,0,0,0,0,
1.340943, 11:41:19.065,0,0,0,0,0,0,0,0,0,
1.379203, 11:41:19.103,0,0,0,0,0,0,0,0,0,
1.478194, 11:41:19.206,0,0,0,0,0,0,0,0,0,
1.512328, 11:41:19.235,0,0,0,0,0,0,0,0,0,
1.544729, 11:41:19.339,0,0,0,0,0,0,0,0,0,
1.650881, 11:41:19.377,0,0,0,0,0,0,0,0,0,
1.720225, 11:41:19.446,0,0,0,0,0,0,0,0,0,
1.891698, 11:41:19.621,0,0,0,0,0,0,0,0,0,
1.938039, 11:41:19.662,0,0,0,0,0,0,0,0,0,
1.974711, 11:41:19.699,0,0,0,0,0,0,0,0,0,
2.006977, 11:41:19.730,0,0,0,0,0,0,0,0,0,
2.037757, 11:41:19.761,0,0,0,0,0,0,0,0,0,
2.068862, 11:41:19.792,0,0,0,0,0,0,0,0,0,
2.103213, 11:41:19.827,0,0,0,0,0,0,0,0,0,
2.138453, 11:41:19.862,0,0,0,0,0,0,0,0,0,
2.177202, 11:41:19.901,0,0,0,0,0,0,0,0,0,
2.209427, 11:41:19.934,0,0,0,0,0,0,0,0,0,
2.243927, 11:41:19.968,0,0,0,0,0,0,0,0,0,
2.281186, 11:41:20.008,0,0,0,0,0,0,0,0,0,
2.322384, 11:41:20.047,0,0,0,0,0,0,0,0,0,
2.363156, 11:41:20.088,0,0,0,0,0,0,0,0,0,
2.395343, 11:41:20.118,0,0,0,0,0,0,0,0,0,
2.432433, 11:41:20.157,0,0,0,0,0,0,0,0,0,
2.470108, 11:41:20.193,0,0,0,0,0,0,0,0,0,
2.508449, 11:41:20.232,0,0,0,0,0,0,0,0,0,
2.540926, 11:41:20.265,0,0,0,0,0,0,0,0,0,
2.580396, 11:41:20.305,0,0,0,0,0,0,0,0,0,
2.620713, 11:41:20.345,0,0,0,0,0,0,0,0,0,
2.655634, 11:41:20.379,0,0,0,0,0,0,0,0,0,
2.687816, 11:41:20.412,0,0,0,0,0,0,0,0,0,
2.722823, 11:41:20.448,0,0,0,0,0,0,0,0,0,
2.758246, 11:41:20.481,0,0,0,0,0,0,0,0,0,
2.795212, 11:41:20.518,0,0,0,0,0,0,0,0,0,
2.835822, 11:41:20.559,0,0,0,0,0,0,0,0,0,
2.86859, 11:41:20.592,0,0,0,0,0,0,0,0,0,
2.898693, 11:41:20.621,0,0,0,0,0,0,0,0,0,
2.932482, 11:41:20.657,0,0,0,0,0,0,0,0,0,
2.975194, 11:41:20.700,0,0,0,0,0,0,0,0,0,
3.018146, 11:41:20.743,0,0,0,0,0,0,0,0,0,
3.069476, 11:41:20.796,0,0,0,0,0,0,0,0,0,
3.107396, 11:41:20.832,0,0,0,0,0,0,0,0,0,
3.146273, 11:41:20.870,0,0,0,0,0,0,0,0,0,
3.18016, 11:41:20.904,0,0,0,0,0,0,0,0,0,
3.214964, 11:41:20.937,0,0,0,0,0,0,0,0,0,
3.244781, 11:41:20.968,0,0,0,0,0,0,0,0,0,
3.287982, 11:41:21.011,0,0,0,0,0,0,0,0,0,
3.324151, 11:41:21.047,0,0,0,0,0,0,0,0,0,
3.360474, 11:41:21.085,0,0,0,0,0,0,0,0,0,
3.39365, 11:41:21.117,0,0,0,0,0,0,0,0,0,
3.428823, 11:41:21.154,0,0,0,0,0,0,0,0,0,
3.461376, 11:41:21.185,0,0,0,0,0,0,0,0,0,
3.496062, 11:41:21.218,0,0,0,0,0,0,0,0,0,
3.527411, 11:41:21.250,0,0,0,0,0,0,0,0,0,
3.559827, 11:41:21.283,0,0,0,0,0,0,0,0,0,
3.592577, 11:41:21.317,0,0,0,0,0,0,0,0,0,
3.627814, 11:41:21.352,0,0,0,0,0,0,0,0,0,
3.668597, 11:41:21.393,0,0,0,0,0,0,0,0,0,
3.707732, 11:41:21.433,0,0,0,0,0,0,0,0,0,
3.743267, 11:41:21.468,0,0,0,0,0,0,0,0,0,
3.779526, 11:41:21.503,0,0,0,0,0,0,0,0,0,
3.814561, 11:41:21.538,0,0,0,0,0,0,0,0,0,
3.849591, 11:41:21.573,0,0,0,0,0,0,0,0,0,
3.890319, 11:41:21.615,0,0,0,0,0,0,0,0,0,
3.928015, 11:41:21.653,0,0,0,0,0,0,0,0,0,
3.963751, 11:41:21.688,0,0,0,0,0,0,0,0,0,
4.003977, 11:41:21.729,0,0,0,0,0,0,0,0,0,
4.045702, 11:41:21.771,0,0,0,0,0,0,0,0,0,
4.080201, 11:41:21.804,0,0,0,0,0,0,0,0,0,
4.116458, 11:41:21.839,0,0,0,0,0,0,0,0,0,
4.154735, 11:41:21.880,0,0,0,0,0,0,0,0,0,
4.196317, 11:41:21.920,0,0,0,0,0,0,0,0,0,
4.243144, 11:41:21.968,0,0,0,0,0,0,0,0,0,
4.283792, 11:41:22.008,0,0,0,0,0,0,0,0,0,
4.323777, 11:41:22.048,0,0,0,0,0,0,0,0,0,
4.364676, 11:41:22.088,0,0,0,0,0,0,0,0,0,
4.397197, 11:41:22.120,0,0,0,0,0,0,0,0,0,
4.428504, 11:41:22.153,0,0,0,0,0,0,0,0,0,
4.464531, 11:41:22.189,0,0,0,0,0,0,0,0,0,
4.500195, 11:41:22.225,0,0,0,0,0,0,0,0,0,
4.538057, 11:41:22.262,0,0,0,0,0,0,0,0,0,
4.571005, 11:41:22.294,0,0,0,0,0,0,0,0,0,
4.60323, 11:41:22.326,0,0,0,0,0,0,0,0,0,
4.637133, 11:41:22.359,0,0,0,0,0,0,0,0,0,
4.672273, 11:41:22.396,0,0,0,0,0,0,0,0,0,
4.707084, 11:41:22.432,0,0,0,0,0,0,0,0,0,
4.742311, 11:41:22.467,0,0,0,0,0,0,0,0,0,
4.780853, 11:41:22.505,0,0,0,0,0,0,0,0,0,
4.814989, 11:41:22.538,0,0,0,0,0,0,0,0,0,
4.850518, 11:41:22.575,0,0,0,0,0,0,0,0,0,
4.887426, 11:41:22.612,0,0,0,0,0,0,0,0,0,
4.921992, 11:41:22.647,0,0,0,0,0,0,0,0,0,
4.957778, 11:41:22.681,0,0,0,0,0,0,0,0,0,
4.991608, 11:41:22.716,0,0,0,0,0,0,0,0,0,
5.030686, 11:41:22.756,0,0,0,0,0,0,0,0,0,
5.070481, 11:41:22.795,0,0,0,0,0,0,0,0,0,
5.103992, 11:41:22.829,0,0,0,0,0,0,0,0,0,
5.136666, 11:41:22.860,0,0,0,0,0,0,0,0,0,
5.171487, 11:41:22.894,0,0,0,0,0,0,0,0,0,
5.207663, 11:41:22.931,0,0,0,0,0,0,0,0,0,
5.244524, 11:41:22.969,0,0,0,0,0,0,0,0,0,
5.279478, 11:41:23.003,0,0,0,0,0,0,0,0,0,
5.316059, 11:41:23.040,0,0,0,0,0,0,0,0,0,
5.356695, 11:41:23.081,0,0,0,0,0,0,0,0,0,
5.406964, 11:41:23.133,0,0,0,0,0,0,0,0,0,
5.445549, 11:41:23.170,0,0,0,0,0,0,0,0,0,
5.485653, 11:41:23.209,0,0,0,0,0,0,0,0,0,
5.517847, 11:41:23.241,0,0,0,0,0,0,0,0,0,
5.553033, 11:41:23.277,0,0,0,0,0,0,0,0,0,
5.588964, 11:41:23.313,0,0,0,0,0,0,0,0,0,
5.629311, 11:41:23.358,0,0,0,0,0,0,0,0,0,
5.66862, 11:41:23.393,0,0,0,0,0,0,0,0,0,
5.706394, 11:41:23.431,0,0,0,0,0,0,0,0,0,
5.747187, 11:41:23.472,0,0,0,0,0,0,0,0,0,
5.782471, 11:41:23.507,0,0,0,0,0,0,0,0,0,
5.815569, 11:41:23.541,0,0,0,0,0,0,0,0,0,
5.851958, 11:41:23.576,0,0,0,0,0,0,0,0,0,
5.890009, 11:41:23.615,0,0,0,0,0,0,0,0,0,
5.931046, 11:41:23.655,0,0,0,0,0,0,0,0,0,
5.972866, 11:41:23.698,0,0,0,0,0,0,0,0,0,
6.017573, 11:41:23.742,0,0,0,0,0,0,0,0,0,
6.066581, 11:41:23.792,0,0,0,0,0,0,0,0,0,
6.108949, 11:41:23.833,0,0,0,0,0,0,0,0,0,
6.150647, 11:41:23.875,0,0,0,0,0,0,0,0,0,
6.195524, 11:41:23.921,0,0,0,0,0,0,0,0,0,
6.242847, 11:41:23.968,0,0,0,0,0,0,0,0,0,
6.287466, 11:41:24.012,0,0,0,0,0,0,0,0,0,
6.328925, 11:41:24.054,0,0,0,0,0,0,0,0,0,
6.373766, 11:41:24.098,0,0,0,0,0,0,0,0,0,
6.421102, 11:41:24.148,0,0,0,0,0,0,0,0,0,
6.464694, 11:41:24.190,0,0,0,0,0,0,0,0,0,
6.509202, 11:41:24.235,0,0,0,0,0,0,0,0,0,
6.56508, 11:41:24.292,0,0,0,0,0,0,0,0,0,
6.614769, 11:41:24.339,0,0,0,0,0,0,0,0,0,
6.655302, 11:41:24.379,0,0,0,0,0,0,0,0,0,
6.687933, 11:41:24.412,0,0,0,0,0,0,0,0,0,
6.722411, 11:41:24.446,0,0,0,0,0,0,0,0,0,
6.756837, 11:41:24.479,0,0,0,0,0,0,0,0,0,
6.788953, 11:41:24.511,0,0,0,0,0,0,0,0,0,
6.822703, 11:41:24.546,0,0,0,0,0,0,0,0,0,
6.854606, 11:41:24.577,0,0,0,0,0,0,0,0,0,
6.884524, 11:41:24.608,0,0,0,0,0,0,0,0,0,
6.920475, 11:41:24.645,0,0,0,0,0,0,0,0,0,
6.960021, 11:41:24.683,0,0,0,0,0,0,0,0,0,
6.992858, 11:41:24.716,0,0,0,0,0,0,0,0,0,
7.027525, 11:41:24.751,0,0,0,0,0,0,0,0,0,
7.059957, 11:41:24.783,0,0,0,0,0,0,0,0,0,
7.094613, 11:41:24.818,0,0,0,0,0,0,0,0,0,
7.128905, 11:41:24.853,0,0,0,0,0,0,0,0,0,
7.164312, 11:41:24.888,0,0,0,0,0,0,0,0,0,
7.19648, 11:41:24.920,0,0,0,0,0,0,0,0,0,
7.231392, 11:41:24.956,0,0,0,0,0,0,0,0,0,
7.267101, 11:41:24.991,0,0,0,0,0,0,0,0,0,
7.302726, 11:41:25.026,0,0,0,0,0,0,0,0,0,
7.33326, 11:41:25.057,0,0,0,0,0,0,0,0,0,
7.37006, 11:41:25.095,0,0,0,0,0,0,0,0,0,
7.426916, 11:41:25.152,0,0,0,0,0,0,0,0,0,
7.467593, 11:41:25.191,0,0,0,0,0,0,0,0,0,
7.502211, 11:41:25.226,0,0,0,0,0,0,0,0,0,
7.531454, 11:41:25.255,0,0,0,0,0,0,0,0,0,
7.562107, 11:41:25.286,0,0,0,0,0,0,0,0,0,
7.597354, 11:41:25.321,0,0,0,0,0,0,0,0,0,
7.631545, 11:41:25.356,0,0,0,0,0,0,0,0,0,
7.671777, 11:41:25.397,0,0,0,0,0,0,0,0,0,
7.708773, 11:41:25.433,0,0,0,0,0,0,0,0,0,
7.751153, 11:41:25.475,0,0,0,0,0,0,0,0,0,
7.788787, 11:41:25.513,0,0,0,0,0,0,0,0,0,
7.826153, 11:41:25.550,0,0,0,0,0,0,0,0,0,
7.858107, 11:41:25.581,0,0,0,0,0,0,0,0,0,
7.889335, 11:41:25.614,0,0,0,0,0,0,0,0,0,
7.923457, 11:41:25.647,0,0,0,0,0,0,0,0,0,
7.959722, 11:41:25.683,0,0,0,0,0,0,0,0,0,
7.993674, 11:41:25.717,0,0,0,0,0,0,0,0,0,
8.030265, 11:41:25.755,0,0,0,0,0,0,0,0,0,
8.062258, 11:41:25.786,0,0,0,0,0,0,0,0,0,
8.094853, 11:41:25.817,0,0,0,0,0,0,0,0,0,
8.127535, 11:41:25.851,0,0,0,0,0,0,0,0,0,
8.161572, 11:41:25.885,0,0,0,0,0,0,0,0,0,
8.193213, 11:41:25.916,0,0,0,0,0,0,0,0,0,
8.224257, 11:41:25.947,0,0,0,0,0,0,0,0,0,
8.259807, 11:41:25.982,0,0,0,0,0,0,0,0,0,
8.308367, 11:41:26.034,0,0,0,0,0,0,0,0,0,
8.343419, 11:41:26.067,0,0,0,0,0,0,0,0,0,
8.377902, 11:41:26.102,0,0,0,0,0,0,0,0,0,
8.410474, 11:41:26.134,0,0,0,0,0,0,0,0,0,
8.444406, 11:41:26.168,0,0,0,0,0,0,0,0,0,
8.480567, 11:41:26.204,0,0,0,0,0,0,0,0,0,
8.51284, 11:41:26.236,0,0,0,0,0,0,0,0,0,
8.543202, 11:41:26.267,0,0,0,0,0,0,0,0,0,
8.576449, 11:41:26.299,0,0,0,0,0,0,0,0,0,
8.609879, 11:41:26.334,0,0,0,0,0,0,0,0,0,
8.645466, 11:41:26.370,0,0,0,0,0,0,0,0,0,
8.680299, 11:41:26.405,0,0,0,0,0,0,0,0,0,
8.712955, 11:41:26.436,0,0,0,0,0,0,0,0,0,
8.745919, 11:41:26.470,0,0,0,0,0,0,0,0,0,
8.782648, 11:41:26.506,0,0,0,0,0,0,0,0,0,
8.823211, 11:41:26.547,0,0,0,0,0,0,0,0,0,
8.864135, 11:41:26.589,0,0,0,0,0,0,0,0,0,
8.91084, 11:41:26.635,0,0,0,0,0,0,0,0,0,
8.951636, 11:41:26.676,0,0,0,0,0,0,0,0,0,
8.988032, 11:41:26.711,0,0,0,0,0,0,0,0,0,
9.023476, 11:41:26.748,0,0,0,0,0,0,0,0,0,
9.058607, 11:41:26.782,0,0,0,0,0,0,0,0,0,
9.089946, 11:41:26.815,0,0,0,0,0,0,0,0,0,
9.132426, 11:41:26.856,0,0,0,0,0,0,0,0,0,
9.167597, 11:41:26.892,0,0,0,0,0,0,0,0,0,
9.20306, 11:41:26.927,0,0,0,0,0,0,0,0,0,
9.237202, 11:41:26.961,0,0,0,0,0,0,0,0,0,
9.273766, 11:41:26.998,0,0,0,0,0,0,0,0,0,
9.311364, 11:41:27.035,0,0,0,0,0,0,0,0,0,
9.351747, 11:41:27.075,0,0,0,0,0,0,0,0,0,
9.383641, 11:41:27.107,0,0,0,0,0,0,0,0,0,
9.415626, 11:41:27.139,0,0,0,0,0,0,0,0,0,
9.447335, 11:41:27.172,0,0,0,0,0,0,0,0,0,
9.481518, 11:41:27.205,0,0,0,0,0,0,0,0,0,
9.518555, 11:41:27.241,0,0,0,0,0,0,0,0,0,
9.553392, 11:41:27.277,0,0,0,0,0,0,0,0,0,
9.58684, 11:41:27.311,0,0,0,0,0,0,0,0,0,
9.620578, 11:41:27.344,0,0,0,0,0,0,0,0,0,
9.655672, 11:41:27.378,0,0,0,0,0,0,0,0,0,
9.689379, 11:41:27.412,0,0,0,0,0,0,0,0,0,
9.724999, 11:41:27.449,0,0,0,0,0,0,0,0,0,
9.762433, 11:41:27.487,0,0,0,0,0,0,0,0,0,
9.799014, 11:41:27.522,0,0,0,0,0,0,0,0,0,
9.835341, 11:41:27.560,0,0,0,0,0,0,0,0,0,
9.87089, 11:41:27.595,0,0,0,0,0,0,0,0,0,
9.902844, 11:41:27.628,0,0,0,0,0,0,0,0,0,
9.935389, 11:41:27.659,0,0,0,0,0,0,0,0,0,
10.03314, 11:41:27.761,0,0,0,0,0,0,0,0,0,
10.07662, 11:41:27.800,0,0,0,0,0,0,0,0,0,
10.11477, 11:41:27.839,0,0,0,0,0,0,0,0,0,
10.14743, 11:41:27.872,0,0,0,0,0,0,0,0,0,
10.18222, 11:41:27.905,0,0,0,0,0,0,0,0,0,
10.21429, 11:41:27.937,0,0,0,0,0,0,0,0,0,
10.24803, 11:41:27.972,0,0,0,0,0,0,0,0,0,
10.28124, 11:41:28.005,0,0,0,0,0,0,0,0,0,
10.31432, 11:41:28.037,0,0,0,0,0,0,0,0,0,
10.34575, 11:41:28.070,0,0,0,0,0,0,0,0,0,
10.38068, 11:41:28.105,0,0,0,0,0,0,0,0,0,
10.41838, 11:41:28.141,0,0,0,0,0,0,0,0,0,
10.45223, 11:41:28.177,0,0,0,0,0,0,0,0,0,
10.48458, 11:41:28.208,0,0,0,0,0,0,0,0,0,
10.51732, 11:41:28.240,0,0,0,0,0,0,0,0,0,
10.54854, 11:41:28.273,0,0,0,0,0,0,0,0,0,
10.58506, 11:41:28.308,0,0,0,0,0,0,0,0,0,
10.62177, 11:41:28.347,0,0,0,0,0,0,0,0,0,
10.65636, 11:41:28.380,0,0,0,0,0,0,0,0,0,
10.68945, 11:41:28.413,0,0,0,0,0,0,0,0,0,
10.72136, 11:41:28.445,0,0,0,0,0,0,0,0,0,
10.75945, 11:41:28.483,0,0,0,0,0,0,0,0,0,
10.79336, 11:41:28.518,0,0,0,0,0,0,0,0,0,
10.8275, 11:41:28.553,0,0,0,0,0,0,0,0,0,
10.86468, 11:41:28.588,0,0,0,0,0,0,0,0,0,
10.89647, 11:41:28.619,0,0,0,0,0,0,0,0,0,
10.93191, 11:41:28.655,0,0,0,0,0,0,0,0,0,
10.96729, 11:41:28.690,0,0,0,0,0,0,0,0,0,
10.99871, 11:41:28.722,0,0,0,0,0,0,0,0,0,
11.03483, 11:41:28.759,0,0,0,0,0,0,0,0,0,
11.06766, 11:41:28.792,0,0,0,0,0,0,0,0,0,
11.10298, 11:41:28.827,0,0,0,0,0,0,0,0,0,
11.14398, 11:41:28.868,0,0,0,0,0,0,0,0,0,
11.18195, 11:41:28.907,0,0,0,0,0,0,0,0,0,
11.22255, 11:41:28.946,0,0,0,0,0,0,0,0,0,
11.2607, 11:41:28.985,0,0,0,0,0,0,0,0,0,
11.29442, 11:41:29.017,0,0,0,0,0,0,0,0,0,
11.3264, 11:41:29.050,0,0,0,0,0,0,0,0,0,
11.35764, 11:41:29.080,0,0,0,0,0,0,0,0,0,
11.38818, 11:41:29.112,0,0,0,0,0,0,0,0,0,
11.42536, 11:41:29.150,0,0,0,0,0,0,0,0,0,
11.46238, 11:41:29.186,0,0,0,0,0,0,0,0,0,
11.49416, 11:41:29.217,0,0,0,0,0,0,0,0,0,
11.5247, 11:41:29.249,0,0,0,0,0,0,0,0,0,
11.5571, 11:41:29.281,0,0,0,0,0,0,0,0,0,
11.59134, 11:41:29.314,0,0,0,0,0,0,0,0,0,
11.62809, 11:41:29.352,0,0,0,0,0,0,0,0,0,
11.66936, 11:41:29.394,0,0,0,0,0,0,0,0,0,
11.70419, 11:41:29.428,0,0,0,0,0,0,0,0,0,
11.73675, 11:41:29.460,0,0,0,0,0,0,0,0,0,
11.77041, 11:41:29.494,0,0,0,0,0,0,0,0,0,
11.80554, 11:41:29.530,0,0,0,0,0,0,0,0,0,
11.83799, 11:41:29.561,0,0,0,0,0,0,0,0,0,
11.87246, 11:41:29.597,0,0,0,0,0,0,0,0,0,
11.9121, 11:41:29.636,0,0,0,0,0,0,0,0,0,
11.94884, 11:41:29.672,0,0,0,0,0,0,0,0,0,
11.98453, 11:41:29.709,0,0,0,0,0,0,0,0,0,
12.02312, 11:41:29.747,0,0,0,0,0,0,0,0,0,
12.05804, 11:41:29.781,0,0,0,0,0,0,0,0,0,
12.09323, 11:41:29.818,0,0,0,0,0,0,0,0,0,
12.12842, 11:41:29.853,0,0,0,0,0,0,0,0,0,
12.16248, 11:41:29.886,0,0,0,0,0,0,0,0,0,
12.19394, 11:41:29.916,0,0,0,0,0,0,0,0,0,
12.22587, 11:41:29.950,0,0,0,0,0,0,0,0,0,
12.25881, 11:41:29.982,0,0,0,0,0,0,0,0,0,
12.2941, 11:41:30.018,0,0,0,0,0,0,0,0,0,
12.32703, 11:41:30.052,0,0,0,0,0,0,0,0,0,
12.36635, 11:41:30.092,0,0,0,0,0,0,0,0,0,
12.40599, 11:41:30.131,0,0,0,0,0,0,0,0,0,
12.44812, 11:41:30.172,0,0,0,0,0,0,0,0,0,
12.48386, 11:41:30.208,0,0,0,0,0,0,0,0,0,
12.52758, 11:41:30.251,0,0,0,0,0,0,0,0,0,
12.56061, 11:41:30.285,0,0,0,0,0,0,0,0,0,
12.59204, 11:41:30.314,0,0,0,0,0,0,0,0,0,
12.62407, 11:41:30.348,0,0,0,0,0,0,0,0,0,
12.65833, 11:41:30.381,0,0,0,0,0,0,0,0,0,
12.692, 11:41:30.416,0,0,0,0,0,0,0,0,0,
12.72613, 11:41:30.451,0,0,0,0,0,0,0,0,0,
12.75884, 11:41:30.482,0,0,0,0,0,0,0,0,0,
12.78964, 11:41:30.514,0,0,0,0,0,0,0,0,0,
12.82316, 11:41:30.548,0,0,0,0,0,0,0,0,0,
12.85637, 11:41:30.578,0,0,0,0,0,0,0,0,0,
12.88688, 11:41:30.610,0,0,0,0,0,0,0,0,0,
12.92118, 11:41:30.646,0,0,0,0,0,0,0,0,0,
12.95537, 11:41:30.678,0,0,0,0,0,0,0,0,0,
12.9882, 11:41:30.712,0,0,0,0,0,0,0,0,0,
13.02484, 11:41:30.749,0,0,0,0,0,0,0,0,0,
13.05682, 11:41:30.780,0,0,0,0,0,0,0,0,0,
13.08969, 11:41:30.814,0,0,0,0,0,0,0,0,0,
13.12405, 11:41:30.847,0,0,0,0,0,0,0,0,0,
13.16203, 11:41:30.886,0,0,0,0,0,0,0,0,0,
13.19811, 11:41:30.921,0,0,0,0,0,0,0,0,0,
13.23265, 11:41:30.957,0,0,0,0,0,0,0,0,0,
13.26997, 11:41:30.994,0,0,0,0,0,0,0,0,0,
13.30608, 11:41:31.031,0,0,0,0,0,0,0,0,0,
13.35012, 11:41:31.075,0,0,0,0,0,0,0,0,0,
13.39449, 11:41:31.119,0,0,0,0,0,0,0,0,0,
13.42739, 11:41:31.152,0,0,0,0,0,0,0,0,0,
13.45955, 11:41:31.184,0,0,0,0,0,0,0,0,0,
13.49444, 11:41:31.218,0,0,0,0,0,0,0,0,0,
13.52935, 11:41:31.254,0,0,0,0,0,0,0,0,0,
13.56504, 11:41:31.290,0,0,0,0,0,0,0,0,0,
13.61226, 11:41:31.337,0,0,0,0,0,0,0,0,0,
13.64838, 11:41:31.373,0,0,0,0,0,0,0,0,0,
13.68927, 11:41:31.414,0,0,0,0,0,0,0,0,0,
13.72594, 11:41:31.452,0,0,0,0,0,0,0,0,0,
13.77017, 11:41:31.495,0,0,0,0,0,0,0,0,0,
13.80983, 11:41:31.534,0,0,0,0,0,0,0,0,0,
13.84352, 11:41:31.567,0,0,0,0,0,0,0,0,0,
13.87387, 11:41:31.596,0,0,0,0,0,0,0,0,0,
13.90797, 11:41:31.631,0,0,0,0,0,0,0,0,0,
13.93937, 11:41:31.661,0,0,0,0,0,0,0,0,0,
13.97754, 11:41:31.702,0,0,0,0,0,0,0,0,0,
14.02234, 11:41:31.748,0,0,0,0,0,0,0,0,0,
14.05981, 11:41:31.783,0,0,0,0,0,0,0,0,0,
14.09266, 11:41:31.817,0,0,0,0,0,0,0,0,0,
14.13141, 11:41:31.855,0,0,0,0,0,0,0,0,0,
14.16854, 11:41:31.892,0,0,0,0,0,0,0,0,0,
14.19856, 11:41:31.927,0,0,0,0,0,0,0,0,0,
14.23632, 11:41:31.959,0,0,0,0,0,0,0,0,0,
14.26843, 11:41:32.013,0,0,0,0,0,0,0,0,0,
14.32785, 11:41:32.053,0,0,0,0,0,0,0,0,0,
14.36756, 11:41:32.092,0,0,0,0,0,0,0,0,0,
14.40227, 11:41:32.126,0,0,0,0,0,0,0,0,0,
14.44142, 11:41:32.166,0,0,0,0,0,0,0,0,0,
14.48051, 11:41:32.205,0,0,0,0,0,0,0,0,0,
14.51945, 11:41:32.242,0,0,0,0,0,0,0,0,0,
14.55487, 11:41:32.278,0,0,0,0,0,0,0,0,0,
14.58997, 11:41:32.314,0,0,0,0,0,0,0,0,0,
14.62736, 11:41:32.352,0,0,0,0,0,0,0,0,0,
14.66548, 11:41:32.389,0,0,0,0,0,0,0,0,0,
14.70171, 11:41:32.425,0,0,0,0,0,0,0,0,0,
14.73472, 11:41:32.458,0,0,0,0,0,0,0,0,0,
14.7709, 11:41:32.495,0,0,0,0,0,0,0,0,0,
14.81536, 11:41:32.539,0,0,0,0,0,0,0,0,0,
14.85356, 11:41:32.577,0,0,0,0,0,0,0,0,0,
14.88986, 11:41:32.614,0,0,0,0,0,0,0,0,0,
14.92364, 11:41:32.648,0,0,0,0,0,0,0,0,0,
14.95555, 11:41:32.679,0,0,0,0,0,0,0,0,0,
14.98773, 11:41:32.712,0,0,0,0,0,0,0,0,0,
15.0371, 11:41:32.760,0,0,0,0,0,0,0,0,0,
15.07333, 11:41:32.796,0,0,0,0,0,0,0,0,0,
15.11579, 11:41:32.840,0,0,0,0,0,0,0,0,0,
15.14967, 11:41:32.874,0,0,0,0,0,0,0,0,0,
15.18793, 11:41:32.912,0,0,0,0,0,0,0,0,0,
15.22474, 11:41:32.949,0,0,0,0,0,0,0,0,0,
15.25903, 11:41:32.985,0,0,0,0,0,0,0,0,0,
15.29569, 11:41:33.021,0,0,0,0,0,0,0,0,0,
15.33711, 11:41:33.061,0,0,0,0,0,0,0,0,0,
15.3762, 11:41:33.101,0,0,0,0,0,0,0,0,0,
15.4153, 11:41:33.139,0,0,0,0,0,0,0,0,0,
15.45074, 11:41:33.175,0,0,0,0,0,0,0,0,0,
15.48831, 11:41:33.212,0,0,0,0,0,0,0,0,0,
15.52894, 11:41:33.253,0,0,0,0,0,0,0,0,0,
15.56996, 11:41:33.294,0,0,0,0,0,0,0,0,0,
15.60559, 11:41:33.330,0,0,0,0,0,0,0,0,0,
15.64084, 11:41:33.365,0,0,0,0,0,0,0,0,0,
15.67622, 11:41:33.399,0,0,0,0,0,0,0,0,0,
15.70914, 11:41:33.433,0,0,0,0,0,0,0,0,0,
15.74039, 11:41:33.465,0,0,0,0,0,0,0,0,0,
15.77696, 11:41:33.500,0,0,0,0,0,0,0,0,0,
15.80972, 11:41:33.533,0,0,0,0,0,0,0,0,0,
15.8498, 11:41:33.573,0,0,0,0,0,0,0,0,0,
15.89037, 11:41:33.614,0,0,0,0,0,0,0,0,0,
15.92753, 11:41:33.654,0,0,0,0,0,0,0,0,0,
15.9687, 11:41:33.693,0,0,0,0,0,0,0,0,0,
16.01954, 11:41:33.744,0,0,0,0,0,0,0,0,0,
16.05799, 11:41:33.782,0,0,0,0,0,0,0,0,0,
16.09234, 11:41:33.816,0,0,0,0,0,0,0,0,0,
16.1277, 11:41:33.852,0,0,0,0,0,0,0,0,0,
16.16344, 11:41:33.888,0,0,0,0,0,0,0,0,0,
16.20451, 11:41:33.929,0,0,0,0,0,0,0,0,0,
16.24432, 11:41:33.969,0,0,0,0,0,0,0,0,0,
16.29196, 11:41:34.016,0,0,0,0,0,0,0,0,0,
16.33287, 11:41:34.058,0,0,0,0,0,0,0,0,0,
16.37226, 11:41:34.097,0,0,0,0,0,0,0,0,0,
16.40921, 11:41:34.133,0,0,0,0,0,0,0,0,0,
16.44801, 11:41:34.172,0,0,0,0,0,0,0,0,0,
16.48651, 11:41:34.211,0,0,0,0,0,0,0,0,0,
16.52148, 11:41:34.245,0,0,0,0,0,0,0,0,0,
16.55592, 11:41:34.278,0,0,0,0,0,0,0,0,0,
16.58821, 11:41:34.312,0,0,0,0,0,0,0,0,0,
16.62806, 11:41:34.352,0,0,0,0,0,0,0,0,0,
16.66652, 11:41:34.390,0,0,0,0,0,0,0,0,0,
16.70192, 11:41:34.425,0,0,0,0,0,0,0,0,0,
16.73379, 11:41:34.456,0,0,0,0,0,0,0,0,0,
16.76467, 11:41:34.489,0,0,0,0,0,0,0,0,0,
16.79837, 11:41:34.521,0,0,0,0,0,0,0,0,0,
16.83451, 11:41:34.558,0,0,0,0,0,0,0,0,0,
16.88233, 11:41:34.609,0,0,0,0,0,0,0,0,0,
16.91787, 11:41:34.640,0,0,0,0,0,0,0,0,0,
16.95134, 11:41:34.675,0,0,0,0,0,0,0,0,0,
16.98525, 11:41:34.724,0,0,0,0,0,0,0,0,0,
17.04047, 11:41:34.766,0,0,0,0,0,0,0,0,0,
17.07898, 11:41:34.802,0,0,0,0,0,0,0,0,0,
17.1242, 11:41:34.849,0,0,0,0,0,0,0,0,0,
17.16316, 11:41:34.887,0,0,0,0,0,0,0,0,0,
17.19867, 11:41:34.922,0,0,0,0,0,0,0,0,0,
17.23158, 11:41:34.957,0,0,0,0,0,0,0,0,0,
17.26573, 11:41:34.989,0,0,0,0,0,0,0,0,0,
17.30073, 11:41:35.024,0,0,0,0,0,0,0,0,0,
17.34066, 11:41:35.065,0,0,0,0,0,0,0,0,0,
17.37756, 11:41:35.101,0,0,0,0,0,0,0,0,0,
17.40922, 11:41:35.134,0,0,0,0,0,0,0,0,0,
17.44091, 11:41:35.165,0,0,0,0,0,0,0,0,0,
17.47537, 11:41:35.198,0,0,0,0,0,0,0,0,0,
17.51379, 11:41:35.238,0,0,0,0,0,0,0,0,0,
17.5513, 11:41:35.275,0,0,0,0,0,0,0,0,0,
17.58481, 11:41:35.309,0,0,0,0,0,0,0,0,0,
17.61698, 11:41:35.340,0,0,0,0,0,0,0,0,0,
17.64848, 11:41:35.372,0,0,0,0,0,0,0,0,0,
17.68172, 11:41:35.406,0,0,0,0,0,0,0,0,0,
17.71867, 11:41:35.448,0,0,0,0,0,0,0,0,0,
17.75578, 11:41:35.480,0,0,0,0,0,0,0,0,0,
17.78772, 11:41:35.512,0,0,0,0,0,0,0,0,0,
17.82029, 11:41:35.544,0,0,0,0,0,0,0,0,0,
17.85624, 11:41:35.578,0,0,0,0,0,0,0,0,0,
17.89045, 11:41:35.614,0,0,0,0,0,0,0,0,0,
17.92424, 11:41:35.648,0,0,0,0,0,0,0,0,0,
17.95531, 11:41:35.678,0,0,0,0,0,0,0,0,0,
17.98725, 11:41:35.711,0,0,0,0,0,0,0,0,0,
18.0253, 11:41:35.750,0,0,0,0,0,0,0,0,0,
18.06051, 11:41:35.785,0,0,0,0,0,0,0,0,0,
18.09337, 11:41:35.816,0,0,0,0,0,0,0,0,0,
18.12573, 11:41:35.851,0,0,0,0,0,0,0,0,0,
18.16017, 11:41:35.909,0,0,0,0,0,0,0,0,0,
18.22467, 11:41:35.950,0,0,0,0,0,0,0,0,0,
18.2759, 11:41:36.000,0,0,0,0,0,0,0,0,0,
18.31333, 11:41:36.037,0,0,0,0,0,0,0,0,0,
18.35343, 11:41:36.077,0,0,0,0,0,0,0,0,0,
18.39233, 11:41:36.117,0,0,0,0,0,0,0,0,0,
18.4257, 11:41:36.150,0,0,0,0,0,0,0,0,0,
18.45899, 11:41:36.182,0,0,0,0,0,0,0,0,0,
18.48911, 11:41:36.213,0,0,0,0,0,0,0,0,0,
18.52702, 11:41:36.252,0,0,0,0,0,0,0,0,0,
18.57071, 11:41:36.295,0,0,0,0,0,0,0,0,0,
18.60996, 11:41:36.334,0,0,0,0,0,0,0,0,0,
18.64359, 11:41:36.368,0,0,0,0,0,0,0,0,0,
18.67791, 11:41:36.402,0,0,0,0,0,0,0,0,0,
18.71222, 11:41:36.436,0,0,0,0,0,0,0,0,0,
18.74483, 11:41:36.469,0,0,0,0,0,0,0,0,0,
18.7787, 11:41:36.502,0,0,0,0,0,0,0,0,0,
18.80965, 11:41:36.534,0,0,0,0,0,0,0,0,0,
18.84558, 11:41:36.569,0,0,0,0,0,0,0,0,0,
18.88086, 11:41:36.604,0,0,0,0,0,0,0,0,0,
18.9121, 11:41:36.635,0,0,0,0,0,0,0,0,0,
18.94177, 11:41:36.666,0,0,0,0,0,0,0,0,0,
18.97417, 11:41:36.697,0,0,0,0,0,0,0,0,0,
19.01004, 11:41:36.734,0,0,0,0,0,0,0,0,0,
19.04544, 11:41:36.768,0,0,0,0,0,0,0,0,0,
19.0771, 11:41:36.800,0,0,0,0,0,0,0,0,0,
19.10835, 11:41:36.832,0,0,0,0,0,0,0,0,0,
19.14058, 11:41:36.865,0,0,0,0,0,0,0,0,0,
19.17489, 11:41:36.898,0,0,0,0,0,0,0,0,0,
19.209, 11:41:36.933,0,0,0,0,0,0,0,0,0,
19.23986, 11:41:36.963,0,0,0,0,0,0,0,0,0,
19.27126, 11:41:36.995,0,0,0,0,0,0,0,0,0,
19.30359, 11:41:37.027,0,0,0,0,0,0,0,0,0,
19.33833, 11:41:37.062,0,0,0,0,0,0,0,0,0,
19.38292, 11:41:37.109,0,0,0,0,0,0,0,0,0,
19.43302, 11:41:37.157,0,0,0,0,0,0,0,0,0,
19.46978, 11:41:37.194,0,0,0,0,0,0,0,0,0,
19.50735, 11:41:37.231,0,0,0,0,0,0,0,0,0,
19.54333, 11:41:37.267,0,0,0,0,0,0,0,0,0,
19.5773, 11:41:37.300,0,0,0,0,0,0,0,0,0,
19.6106, 11:41:37.335,0,0,0,0,0,0,0,0,0,
19.64931, 11:41:37.373,0,0,0,0,0,0,0,0,0,
19.68551, 11:41:37.410,0,0,0,0,0,0,0,0,0,
19.72119, 11:41:37.445,0,0,0,0,0,0,0,0,0,
19.75414, 11:41:37.478,0,0,0,0,0,0,0,0,0,
19.78689, 11:41:37.510,0,0,0,0,0,0,0,0,0,
19.82369, 11:41:37.548,0,0,0,0,0,0,0,0,0,
19.86754, 11:41:37.590,0,0,0,0,0,0,0,0,0,
19.90475, 11:41:37.628,0,0,0,0,0,0,0,0,0,
19.94006, 11:41:37.664,0,0,0,0,0,0,0,0,0,
19.97168, 11:41:37.694,0,0,0,0,0,0,0,0,0,
20.00212, 11:41:37.726,0,0,0,0,0,0,0,0,0,
20.04041, 11:41:37.764,0,0,0,0,0,0,0,0,0,
20.37374, 11:41:38.221,0,0,0,0,0,0,0,0,0,
20.435, 11:41:38.269,0,0,0,0,0,0,0,0,0,
20.51293, 11:41:38.346,0,0,0,0,0,0,0,0,0,
20.59324, 11:41:38.426,0,0,0,0,0,0,0,0,0,
20.65679, 11:41:38.489,0,0,0,0,0,0,0,0,0,
20.69855, 11:41:38.530,0,0,0,0,0,0,0,0,0,
20.73237, 11:41:38.565,0,0,0,0,0,0,0,0,0,
20.76577, 11:41:38.598,0,0,0,0,0,0,0,0,0,
20.80157, 11:41:38.633,0,0,0,0,0,0,0,0,0,
20.83874, 11:41:38.669,0,0,0,0,0,0,0,0,0,
20.87189, 11:41:38.703,0,0,0,0,0,0,0,0,0,
20.90404, 11:41:38.736,0,0,0,0,0,0,0,0,0,
20.93866, 11:41:38.769,0,0,0,0,0,0,0,0,0,
20.97341, 11:41:38.804,0,0,0,0,0,0,0,0,0,
21.00807, 11:41:38.839,0,0,0,0,0,0,0,0,0,
21.04226, 11:41:38.874,0,0,0,0,0,0,0,0,0,
21.07718, 11:41:38.908,0,0,0,0,0,0,0,0,0,
21.11002, 11:41:38.942,0,0,0,0,0,0,0,0,0,
21.14616, 11:41:38.979,0,0,0,0,0,0,0,0,0,
21.18296, 11:41:39.015,0,0,0,0,0,0,0,0,0,
21.21879, 11:41:39.050,0,0,0,0,0,0,0,0,0,
21.25281, 11:41:39.084,0,0,0,0,0,0,0,0,0,
21.287, 11:41:39.118,0,0,0,0,0,0,0,0,0,
21.32404, 11:41:39.155,0,0,0,0,0,0,0,0,0,
21.35966, 11:41:39.190,0,0,0,0,0,0,0,0,0,
21.39116, 11:41:39.223,0,0,0,0,0,0,0,0,0,
21.42454, 11:41:39.256,0,0,0,0,0,0,0,0,0,
21.45996, 11:41:39.290,0,0,0,0,0,0,0,0,0,
21.49664, 11:41:39.329,0,0,0,0,0,0,0,0,0,
21.53674, 11:41:39.368,0,0,0,0,0,0,0,0,0,
21.56887, 11:41:39.401,0,0,0,0,0,0,0,0,0,
21.60651, 11:41:39.439,0,0,0,0,0,0,0,0,0,
21.65538, 11:41:39.487,0,0,0,0,0,0,0,0,0,
21.70202, 11:41:39.534,0,0,0,0,0,0,0,0,0,
21.74047, 11:41:39.572,0,0,0,0,0,0,0,0,0,
21.77172, 11:41:39.603,0,0,0,0,0,0,0,0,0,
21.8034, 11:41:39.635,0,0,0,0,0,0,0,0,0,
21.83709, 11:41:39.668,0,0,0,0,0,0,0,0,0,
21.87798, 11:41:39.710,0,0,0,0,0,0,0,0,0,
21.92398, 11:41:39.757,0,0,0,0,0,0,0,0,0,
21.95891, 11:41:39.790,0,0,0,0,0,0,0,0,0,
21.99081, 11:41:39.823,0,0,0,0,0,0,0,0,0,
22.02697, 11:41:39.859,0,0,0,0,0,0,0,0,0,
22.0638, 11:41:39.895,0,0,0,0,0,0,0,0,0,
22.09594, 11:41:39.926,0,0,0,0,0,0,0,0,0,
22.13132, 11:41:39.962,0,0,0,0,0,0,0,0,0,
22.16418, 11:41:39.996,0,0,0,0,0,0,0,0,0,
22.19861, 11:41:40.030,0,0,0,0,0,0,0,0,0,
22.23395, 11:41:40.066,0,0,0,0,0,0,0,0,0,
22.26666, 11:41:40.098,0,0,0,0,0,0,0,0,0,
22.29856, 11:41:40.129,0,0,0,0,0,0,0,0,0,
22.34303, 11:41:40.175,0,0,0,0,0,0,0,0,0,
22.37989, 11:41:40.215,0,0,0,0,0,0,0,0,0,
22.41867, 11:41:40.250,0,0,0,0,0,0,0,0,0,
22.45754, 11:41:40.290,0,0,0,0,0,0,0,0,0,
22.49358, 11:41:40.325,0,0,0,0,0,0,0,0,0,
22.82691, 11:41:40.894,0,0,0,0,0,0,0,0,0,
22.8794, 11:41:40.931,0,0,0,0,0,0,0,0,0,
22.96472, 11:41:41.020,0,0,0,0,0,0,0,0,0,
23.04706, 11:41:41.101,0,0,0,0,0,0,0,0,0,
23.10395, 11:41:41.157,0,0,0,0,0,0,0,0,0,
23.14204, 11:41:41.194,0,0,0,0,0,0,0,0,0,
23.17798, 11:41:41.229,0,0,0,0,0,0,0,0,0,
23.21049, 11:41:41.263,0,0,0,0,0,0,0,0,0,
23.24714, 11:41:41.299,0,0,0,0,0,0,0,0,0,
23.28542, 11:41:41.338,0,0,0,0,0,0,0,0,0,
23.3191, 11:41:41.370,0,0,0,0,0,0,0,0,0,
23.35283, 11:41:41.405,0,0,0,0,0,0,0,0,0,
23.38707, 11:41:41.439,0,0,0,0,0,0,0,0,0,
23.42359, 11:41:41.475,0,0,0,0,0,0,0,0,0,
23.48276, 11:41:41.537,0,0,0,0,0,0,0,0,0,
23.52166, 11:41:41.575,0,0,0,0,0,0,0,0,0,
23.55637, 11:41:41.607,0,0,0,0,0,0,0,0,0,
23.59304, 11:41:41.645,0,0,0,0,0,0,0,0,0,
23.6304, 11:41:41.683,0,0,0,0,0,0,0,0,0,
23.66601, 11:41:41.719,0,0,0,0,0,0,0,0,0,
23.71378, 11:41:41.767,0,0,0,0,0,0,0,0,0,
23.76872, 11:41:41.822,0,0,0,0,0,0,0,0,0,
23.80776, 11:41:41.861,0,0,0,0,0,0,0,0,0,
23.84088, 11:41:41.892,0,0,0,0,0,0,0,0,0,
23.87498, 11:41:41.925,0,0,0,0,0,0,0,0,0,
23.91009, 11:41:41.962,0,0,0,0,0,0,0,0,0,
23.94609, 11:41:41.997,0,0,0,0,0,0,0,0,0,
23.98588, 11:41:42.037,0,0,0,0,0,0,0,0,0,
24.02214, 11:41:42.074,0,0,0,0,0,0,0,0,0,
24.05638, 11:41:42.107,0,0,0,0,0,0,0,0,0,
24.09037, 11:41:42.143,0,0,0,0,0,0,0,0,0,
24.12769, 11:41:42.180,0,0,0,0,0,0,0,0,0,
24.16117, 11:41:42.213,0,0,0,0,0,0,0,0,0,
24.19749, 11:41:42.249,0,0,0,0,0,0,0,0,0,
24.23113, 11:41:42.282,0,0,0,0,0,0,0,0,0,
24.27508, 11:41:42.326,0,0,0,0,0,0,0,0,0,
24.31194, 11:41:42.364,0,0,0,0,0,0,0,0,0,
24.34519, 11:41:42.397,0,0,0,0,0,0,0,0,0,
24.37883, 11:41:42.430,0,0,0,0,0,0,0,0,0,
24.41421, 11:41:42.467,0,0,0,0,0,0,0,0,0,
24.44986, 11:41:42.502,0,0,0,0,0,0,0,0,0,
24.48639, 11:41:42.540,0,0,0,0,0,0,0,0,0,
24.52144, 11:41:42.574,0,0,0,0,0,0,0,0,0,
24.55651, 11:41:42.607,0,0,0,0,0,0,0,0,0,
24.59531, 11:41:42.647,0,0,0,0,0,0,0,0,0,
24.63359, 11:41:42.685,0,0,0,0,0,0,0,0,0,
24.6689, 11:41:42.721,0,0,0,0,0,0,0,0,0,
24.70684, 11:41:42.759,0,0,0,0,0,0,0,0,0,
24.73971, 11:41:42.790,0,0,0,0,0,0,0,0,0,
24.79341, 11:41:42.846,0,0,0,0,0,0,0,0,0,
24.83378, 11:41:42.886,0,0,0,0,0,0,0,0,0,
24.87657, 11:41:42.929,0,0,0,0,0,0,0,0,0,
24.92318, 11:41:42.977,0,0,0,0,0,0,0,0,0,
24.96219, 11:41:43.014,0,0,0,0,0,0,0,0,0,
25.02041, 11:41:43.073,0,0,0,0,0,0,0,0,0,
25.05793, 11:41:43.108,0,0,0,0,0,0,0,0,0,
25.09291, 11:41:43.145,0,0,0,0,0,0,0,0,0,
25.136, 11:41:43.187,0,0,0,0,0,0,0,0,0,
25.17776, 11:41:43.228,0,0,0,0,0,0,0,0,0,
25.21322, 11:41:43.265,0,0,0,0,0,0,0,0,0,
25.24652, 11:41:43.299,0,0,0,0,0,0,0,0,0,
25.27905, 11:41:43.330,0,0,0,0,0,0,0,0,0,
25.31417, 11:41:43.366,0,0,0,0,0,0,0,0,0,
25.35037, 11:41:43.403,0,0,0,0,0,0,0,0,0,
25.38625, 11:41:43.438,0,0,0,0,0,0,0,0,0,
25.41954, 11:41:43.471,0,0,0,0,0,0,0,0,0,
25.45256, 11:41:43.504,0,0,0,0,0,0,0,0,0,
25.49219, 11:41:43.544,0,0,0,0,0,0,0,0,0,
25.53463, 11:41:43.586,0,0,0,0,0,0,0,0,0,
25.56927, 11:41:43.622,0,0,0,0,0,0,0,0,0,
25.60366, 11:41:43.656,0,0,0,0,0,0,0,0,0,
25.63645, 11:41:43.687,0,0,0,0,0,0,0,0,0,
25.66929, 11:41:43.722,0,0,0,0,0,0,0,0,0,
25.70988, 11:41:43.761,0,0,0,0,0,0,0,0,0,
25.75149, 11:41:43.802,0,0,0,0,0,0,0,0,0,
25.78483, 11:41:43.836,0,0,0,0,0,0,0,0,0,
25.81771, 11:41:43.869,0,0,0,0,0,0,0,0,0,
25.85201, 11:41:43.905,0,0,0,0,0,0,0,0,0,
25.89007, 11:41:43.942,0,0,0,0,0,0,0,0,0,
25.93184, 11:41:43.984,0,0,0,0,0,0,0,0,0,
25.96727, 11:41:44.020,0,0,0,0,0,0,0,0,0,
26.00321, 11:41:44.056,0,0,0,0,0,0,0,0,0,
26.04806, 11:41:44.102,0,0,0,0,0,0,0,0,0,
26.09572, 11:41:44.147,0,0,0,0,0,0,0,0,0,
26.12993, 11:41:44.181,0,0,0,0,0,0,0,0,0,
26.16917, 11:41:44.221,0,0,0,0,0,0,0,0,0,
26.20829, 11:41:44.259,0,0,0,0,0,0,0,0,0,
26.24286, 11:41:44.294,0,0,0,0,0,0,0,0,0,
26.28031, 11:41:44.332,0,0,0,0,0,0,0,0,0,
26.31291, 11:41:44.364,0,0,0,0,0,0,0,0,0,
26.34483, 11:41:44.396,0,0,0,0,0,0,0,0,0,
26.38488, 11:41:44.437,0,0,0,0,0,0,0,0,0,
26.42188, 11:41:44.474,0,0,0,0,0,0,0,0,0,
26.4552, 11:41:44.505,0,0,0,0,0,0,0,0,0,
26.4876, 11:41:44.540,0,0,0,0,0,0,0,0,0,
26.52061, 11:41:44.573,0,0,0,0,0,0,0,0,0,
26.55908, 11:41:44.610,0,0,0,0,0,0,0,0,0,
26.59226, 11:41:44.645,0,0,0,0,0,0,0,0,0,
26.64962, 11:41:44.702,0,0,0,0,0,0,0,0,0,
26.6862, 11:41:44.740,0,0,0,0,0,0,0,0,0,
26.72305, 11:41:44.777,0,0,0,0,0,0,0,0,0,
26.76378, 11:41:44.817,0,0,0,0,0,0,0,0,0,
26.80159, 11:41:44.855,0,0,0,0,0,0,0,0,0,
26.83859, 11:41:44.889,0,0,0,0,0,0,0,0,0,
26.87498, 11:41:44.926,0,0,0,0,0,0,0,0,0,
26.92028, 11:41:44.972,0,0,0,0,0,0,0,0,0,
26.96171, 11:41:45.013,0,0,0,0,0,0,0,0,0,
27.00587, 11:41:45.058,0,0,0,0,0,0,0,0,0,
27.05465, 11:41:45.105,0,0,0,0,0,0,0,0,0,
27.0971, 11:41:45.148,0,0,0,0,0,0,0,0,0,
27.13948, 11:41:45.191,0,0,0,0,0,0,0,0,0,
27.18466, 11:41:45.239,0,0,0,0,0,0,0,0,0,
27.23366, 11:41:45.286,0,0,0,0,0,0,0,0,0,
27.27961, 11:41:45.332,0,0,0,0,0,0,0,0,0,
27.31768, 11:41:45.374,0,0,0,0,0,0,0,0,0,
27.36082, 11:41:45.414,0,0,0,0,0,0,0,0,0,
27.40784, 11:41:45.459,0,0,0,0,0,0,0,0,0,
27.45475, 11:41:45.506,0,0,0,0,0,0,0,0,0,
27.49848, 11:41:45.550,0,0,0,0,0,0,0,0,0,
27.53994, 11:41:45.591,0,0,0,0,0,0,0,0,0,
27.58537, 11:41:45.638,0,0,0,0,0,0,0,0,0,
27.62954, 11:41:45.682,0,0,0,0,0,0,0,0,0,
27.67366, 11:41:45.726,0,0,0,0,0,0,0,0,0,
27.7185, 11:41:45.772,0,0,0,0,0,0,0,0,0,
27.76447, 11:41:45.818,0,0,0,0,0,0,0,0,0,
27.80774, 11:41:45.860,0,0,0,0,0,0,0,0,0,
27.84978, 11:41:45.902,0,0,0,0,0,0,0,0,0,
27.894, 11:41:45.946,0,0,0,0,0,0,0,0,0,
27.94303, 11:41:45.996,0,0,0,0,0,0,0,0,0,
27.98753, 11:41:46.040,0,0,0,0,0,0,0,0,0,
28.02921, 11:41:46.082,0,0,0,0,0,0,0,0,0,
28.07167, 11:41:46.124,0,0,0,0,0,0,0,0,0,
28.11796, 11:41:46.171,0,0,0,0,0,0,0,0,0,
28.16418, 11:41:46.217,0,0,0,0,0,0,0,0,0,
28.20621, 11:41:46.258,0,0,0,0,0,0,0,0,0,
28.2502, 11:41:46.303,0,0,0,0,0,0,0,0,0,
28.29664, 11:41:46.349,0,0,0,0,0,0,0,0,0,
28.34324, 11:41:46.397,0,0,0,0,0,0,0,0,0,
28.3914, 11:41:46.444,0,0,0,0,0,0,0,0,0,
28.43925, 11:41:46.491,0,0,0,0,0,0,0,0,0,
28.47956, 11:41:46.532,0,0,0,0,0,0,0,0,0,
28.51835, 11:41:46.570,0,0,0,0,0,0,0,0,0,
28.56328, 11:41:46.617,0,0,0,0,0,0,0,0,0,
28.60681, 11:41:46.659,0,0,0,0,0,0,0,0,0,
28.65365, 11:41:46.705,0,0,0,0,0,0,0,0,0,
28.69795, 11:41:46.751,0,0,0,0,0,0,0,0,0,
28.73878, 11:41:46.791,0,0,0,0,0,0,0,0,0,
28.7829, 11:41:46.836,0,0,0,0,0,0,0,0,0,
28.83065, 11:41:46.882,0,0,0,0,0,0,0,0,0,
28.87264, 11:41:46.925,0,0,0,0,0,0,0,0,0,
28.9154, 11:41:46.968,0,0,0,0,0,0,0,0,0,
28.96151, 11:41:47.015,0,0,0,0,0,0,0,0,0,
29.00756, 11:41:47.060,0,0,0,0,0,0,0,0,0,
29.05489, 11:41:47.107,0,0,0,0,0,0,0,0,0,
29.09646, 11:41:47.149,0,0,0,0,0,0,0,0,0,
29.42979, 11:41:47.942,0,0,0,0,0,0,0,0,0,
29.48697, 11:41:47.984,0,0,0,0,0,0,0,0,0,
29.5228, 11:41:48.018,0,0,0,0,0,0,0,0,0,
29.55651, 11:41:48.051,0,0,0,0,0,0,0,0,0,
29.59107, 11:41:48.086,0,0,0,0,0,0,0,0,0,
29.63062, 11:41:48.126,0,0,0,0,0,0,0,0,0,
29.6826, 11:41:48.180,0,0,0,0,0,0,0,0,0,
29.71861, 11:41:48.213,0,0,0,0,0,0,0,0,0,
29.76094, 11:41:48.257,0,0,0,0,0,0,0,0,0,
29.8086, 11:41:48.304,0,0,0,0,0,0,0,0,0,
29.85261, 11:41:48.349,0,0,0,0,0,0,0,0,0,
29.89871, 11:41:48.395,0,0,0,0,0,0,0,0,0,
29.93961, 11:41:48.436,0,0,0,0,0,0,0,0,0,
29.98466, 11:41:48.482,0,0,0,0,0,0,0,0,0,
30.03178, 11:41:48.528,0,0,0,0,0,0,0,0,0,
30.07306, 11:41:48.570,0,0,0,0,0,0,0,0,0,
30.11886, 11:41:48.614,0,0,0,0,0,0,0,0,0,
30.16425, 11:41:48.661,0,0,0,0,0,0,0,0,0,
30.2094, 11:41:48.705,0,0,0,0,0,0,0,0,0,
30.25192, 11:41:48.749,0,0,0,0,0,0,0,0,0,
30.30051, 11:41:48.798,0,0,0,0,0,0,0,0,0,
30.35777, 11:41:48.853,0,0,0,0,0,0,0,0,0,
30.39416, 11:41:48.890,0,0,0,0,0,0,0,0,0,
30.42772, 11:41:48.923,0,0,0,0,0,0,0,0,0,
30.47019, 11:41:48.966,0,0,0,0,0,0,0,0,0,
30.51813, 11:41:49.014,0,0,0,0,0,0,0,0,0,
30.57577, 11:41:49.072,0,0,0,0,0,0,0,0,0,
30.61253, 11:41:49.108,0,0,0,0,0,0,0,0,0,
30.64913, 11:41:49.145,0,0,0,0,0,0,0,0,0,
30.69588, 11:41:49.196,0,0,0,0,0,0,0,0,0,
30.73985, 11:41:49.235,0,0,0,0,0,0,0,0,0,
30.78576, 11:41:49.282,0,0,0,0,0,0,0,0,0,
30.82738, 11:41:49.323,0,0,0,0,0,0,0,0,0,
30.87259, 11:41:49.368,0,0,0,0,0,0,0,0,0,
30.91714, 11:41:49.413,0,0,0,0,0,0,0,0,0,
30.95998, 11:41:49.456,0,0,0,0,0,0,0,0,0,
31.00619, 11:41:49.504,0,0,0,0,0,0,0,0,0,
31.05202, 11:41:49.548,0,0,0,0,0,0,0,0,0,
31.10563, 11:41:49.602,0,0,0,0,0,0,0,0,0,
31.13938, 11:41:49.634,0,0,0,0,0,0,0,0,0,
31.17892, 11:41:49.675,0,0,0,0,0,0,0,0,0,
31.22777, 11:41:49.725,0,0,0,0,0,0,0,0,0,
Elapsed_Time, System_Time, Euler_Roll, Euler_Pitch, Euler_Yaw, Gyro_Roll, Gyro_Pitch, Gyro_Yaw, Accel_x, Accel_y, Accel_z
0.02, 11:45:51.118,0,0,0,0,0,0,0,0,0,
0.04, 11:45:51.238,0,0,0,0,0,0,0,0,0,
0.3733333, 11:45:51.976,0,0,0,0,0,0,0,0,0,
0.4639837, 11:45:52.054,0,0,0,0,0,0,0,0,0,
0.5349655, 11:45:52.119,0,0,0,0,0,0,0,0,0,
0.5848215, 11:45:52.170,0,0,0,0,0,0,0,0,0,
0.6342041, 11:45:52.219,0,0,0,0,0,0,0,0,0,
0.6800234, 11:45:52.265,0,0,0,0,0,0,0,0,0,
0.7226019, 11:45:52.306,0,0,0,0,0,0,0,0,0,
0.7640929, 11:45:52.348,0,0,0,0,0,0,0,0,0,
0.8145776, 11:45:52.398,0,0,0,0,0,0,0,0,0,
0.856078, 11:45:52.440,0,0,0,0,0,0,0,0,0,
0.8931167, 11:45:52.477,0,0,0,0,0,0,0,0,0,
0.9310249, 11:45:52.514,0,0,0,0,0,0,0,0,0,
0.9648182, 11:45:52.549,0,0,0,0,0,0,0,0,0,
1.009231, 11:45:52.593,0,0,0,0,0,0,0,0,0,
1.042368, 11:45:52.626,0,0,0,0,0,0,0,0,0,
1.08226, 11:45:52.665,0,0,0,0,0,0,0,0,0,
1.117086, 11:45:52.699,0,0,0,0,0,0,0,0,0,
1.153168, 11:45:52.736,0,0,0,0,0,0,0,0,0,
1.184483, 11:45:52.768,0,0,0,0,0,0,0,0,0,
1.219912, 11:45:52.802,0,0,0,0,0,0,0,0,0,
1.250545, 11:45:52.834,0,0,0,0,0,0,0,0,0,
1.29267, 11:45:52.876,0,0,0,0,0,0,0,0,0,
1.332305, 11:45:52.916,0,0,0,0,0,0,0,0,0,
1.365873, 11:45:52.949,0,0,0,0,0,0,0,0,0,
1.4573, 11:45:53.043,0,0,0,0,0,0,0,0,0,
1.497029, 11:45:53.080,0,0,0,0,0,0,0,0,0,
1.532467, 11:45:53.180,0,0,0,0,0,0,0,0,0,
1.629399, 11:45:53.217,0,0,0,0,0,0,0,0,0,
1.703236, 11:45:53.290,0,0,0,0,0,0,0,0,0,
1.876985, 11:45:53.468,0,0,0,0,0,0,0,0,0,
1.921745, 11:45:53.508,0,0,0,0,0,0,0,0,0,
1.974547, 11:45:53.559,0,0,0,0,0,0,0,0,0,
2.007811, 11:45:53.592,0,0,0,0,0,0,0,0,0,
2.039625, 11:45:53.622,0,0,0,0,0,0,0,0,0,
2.073152, 11:45:53.657,0,0,0,0,0,0,0,0,0,
2.10876, 11:45:53.708,0,0,0,0,0,0,0,0,0,
2.156305, 11:45:53.741,0,0,0,0,0,0,0,0,0,
2.191023, 11:45:53.775,0,0,0,0,0,0,0,0,0,
2.225592, 11:45:53.809,0,0,0,0,0,0,0,0,0,
2.260683, 11:45:53.850,0,0,0,0,0,0,0,0,0,
2.297406, 11:45:53.880,0,0,0,0,0,0,0,0,0,
2.331116, 11:45:53.915,0,0,0,0,0,0,0,0,0,
2.364695, 11:45:53.949,0,0,0,0,0,0,0,0,0,
2.402048, 11:45:53.985,0,0,0,0,0,0,0,0,0,
2.435695, 11:45:54.019,0,0,0,0,0,0,0,0,0,
2.467308, 11:45:54.051,0,0,0,0,0,0,0,0,0,
2.499072, 11:45:54.082,0,0,0,0,0,0,0,0,0,
2.53006, 11:45:54.114,0,0,0,0,0,0,0,0,0,
2.564818, 11:45:54.148,0,0,0,0,0,0,0,0,0,
2.600846, 11:45:54.184,0,0,0,0,0,0,0,0,0,
2.633115, 11:45:54.215,0,0,0,0,0,0,0,0,0,
2.664111, 11:45:54.248,0,0,0,0,0,0,0,0,0,
2.696539, 11:45:54.279,0,0,0,0,0,0,0,0,0,
2.730106, 11:45:54.314,0,0,0,0,0,0,0,0,0,
2.764439, 11:45:54.349,0,0,0,0,0,0,0,0,0,
2.797933, 11:45:54.381,0,0,0,0,0,0,0,0,0,
2.831689, 11:45:54.416,0,0,0,0,0,0,0,0,0,
2.862715, 11:45:54.447,0,0,0,0,0,0,0,0,0,
2.897886, 11:45:54.481,0,0,0,0,0,0,0,0,0,
2.933206, 11:45:54.516,0,0,0,0,0,0,0,0,0,
2.965204, 11:45:54.548,0,0,0,0,0,0,0,0,0,
2.997348, 11:45:54.580,0,0,0,0,0,0,0,0,0,
3.038545, 11:45:54.624,0,0,0,0,0,0,0,0,0,
3.089649, 11:45:54.683,0,0,0,0,0,0,0,0,0,
3.14564, 11:45:54.732,0,0,0,0,0,0,0,0,0,
3.182991, 11:45:54.769,0,0,0,0,0,0,0,0,0,
3.222218, 11:45:54.807,0,0,0,0,0,0,0,0,0,
3.262069, 11:45:54.846,0,0,0,0,0,0,0,0,0,
3.305115, 11:45:54.889,0,0,0,0,0,0,0,0,0,
3.343481, 11:45:54.927,0,0,0,0,0,0,0,0,0,
3.377192, 11:45:54.960,0,0,0,0,0,0,0,0,0,
3.412773, 11:45:54.996,0,0,0,0,0,0,0,0,0,
3.450607, 11:45:55.034,0,0,0,0,0,0,0,0,0,
3.488923, 11:45:55.072,0,0,0,0,0,0,0,0,0,
3.526143, 11:45:55.112,0,0,0,0,0,0,0,0,0,
3.564113, 11:45:55.148,0,0,0,0,0,0,0,0,0,
3.601654, 11:45:55.186,0,0,0,0,0,0,0,0,0,
3.640301, 11:45:55.225,0,0,0,0,0,0,0,0,0,
3.674455, 11:45:55.258,0,0,0,0,0,0,0,0,0,
3.709626, 11:45:55.294,0,0,0,0,0,0,0,0,0,
3.750265, 11:45:55.334,0,0,0,0,0,0,0,0,0,
3.787881, 11:45:55.371,0,0,0,0,0,0,0,0,0,
3.822959, 11:45:55.407,0,0,0,0,0,0,0,0,0,
3.856402, 11:45:55.439,0,0,0,0,0,0,0,0,0,
3.887853, 11:45:55.472,0,0,0,0,0,0,0,0,0,
3.921384, 11:45:55.505,0,0,0,0,0,0,0,0,0,
3.960085, 11:45:55.544,0,0,0,0,0,0,0,0,0,
4.000262, 11:45:55.584,0,0,0,0,0,0,0,0,0,
4.032509, 11:45:55.616,0,0,0,0,0,0,0,0,0,
4.065738, 11:45:55.649,0,0,0,0,0,0,0,0,0,
4.102297, 11:45:55.686,0,0,0,0,0,0,0,0,0,
4.13843, 11:45:55.721,0,0,0,0,0,0,0,0,0,
4.175546, 11:45:55.759,0,0,0,0,0,0,0,0,0,
4.213089, 11:45:55.797,0,0,0,0,0,0,0,0,0,
4.252439, 11:45:55.838,0,0,0,0,0,0,0,0,0,
4.303216, 11:45:55.888,0,0,0,0,0,0,0,0,0,
4.344774, 11:45:55.928,0,0,0,0,0,0,0,0,0,
4.379953, 11:45:55.962,0,0,0,0,0,0,0,0,0,
4.41376, 11:45:55.997,0,0,0,0,0,0,0,0,0,
4.453597, 11:45:56.037,0,0,0,0,0,0,0,0,0,
4.491464, 11:45:56.075,0,0,0,0,0,0,0,0,0,
4.531565, 11:45:56.115,0,0,0,0,0,0,0,0,0,
4.567017, 11:45:56.150,0,0,0,0,0,0,0,0,0,
4.60459, 11:45:56.188,0,0,0,0,0,0,0,0,0,
4.639524, 11:45:56.222,0,0,0,0,0,0,0,0,0,
4.672519, 11:45:56.257,0,0,0,0,0,0,0,0,0,
4.708537, 11:45:56.293,0,0,0,0,0,0,0,0,0,
4.742929, 11:45:56.326,0,0,0,0,0,0,0,0,0,
4.779469, 11:45:56.362,0,0,0,0,0,0,0,0,0,
4.818151, 11:45:56.402,0,0,0,0,0,0,0,0,0,
4.851777, 11:45:56.435,0,0,0,0,0,0,0,0,0,
4.889777, 11:45:56.473,0,0,0,0,0,0,0,0,0,
4.924064, 11:45:56.508,0,0,0,0,0,0,0,0,0,
4.960121, 11:45:56.544,0,0,0,0,0,0,0,0,0,
4.996197, 11:45:56.581,0,0,0,0,0,0,0,0,0,
5.032645, 11:45:56.617,0,0,0,0,0,0,0,0,0,
5.068625, 11:45:56.652,0,0,0,0,0,0,0,0,0,
5.102191, 11:45:56.686,0,0,0,0,0,0,0,0,0,
5.138926, 11:45:56.721,0,0,0,0,0,0,0,0,0,
5.174727, 11:45:56.758,0,0,0,0,0,0,0,0,0,
5.208105, 11:45:56.791,0,0,0,0,0,0,0,0,0,
5.24458, 11:45:56.829,0,0,0,0,0,0,0,0,0,
5.279133, 11:45:56.863,0,0,0,0,0,0,0,0,0,
5.316616, 11:45:56.901,0,0,0,0,0,0,0,0,0,
5.357492, 11:45:56.942,0,0,0,0,0,0,0,0,0,
5.395661, 11:45:56.981,0,0,0,0,0,0,0,0,0,
5.443908, 11:45:57.028,0,0,0,0,0,0,0,0,0,
5.484382, 11:45:57.068,0,0,0,0,0,0,0,0,0,
5.522064, 11:45:57.106,0,0,0,0,0,0,0,0,0,
5.557141, 11:45:57.140,0,0,0,0,0,0,0,0,0,
5.590359, 11:45:57.174,0,0,0,0,0,0,0,0,0,
5.625895, 11:45:57.210,0,0,0,0,0,0,0,0,0,
5.664644, 11:45:57.249,0,0,0,0,0,0,0,0,0,
5.707102, 11:45:57.291,0,0,0,0,0,0,0,0,0,
5.740311, 11:45:57.324,0,0,0,0,0,0,0,0,0,
5.779279, 11:45:57.363,0,0,0,0,0,0,0,0,0,
5.815938, 11:45:57.399,0,0,0,0,0,0,0,0,0,
5.853028, 11:45:57.436,0,0,0,0,0,0,0,0,0,
5.886562, 11:45:57.470,0,0,0,0,0,0,0,0,0,
5.922398, 11:45:57.506,0,0,0,0,0,0,0,0,0,
5.956737, 11:45:57.540,0,0,0,0,0,0,0,0,0,
5.992473, 11:45:57.577,0,0,0,0,0,0,0,0,0,
6.03235, 11:45:57.617,0,0,0,0,0,0,0,0,0,
6.06673, 11:45:57.651,0,0,0,0,0,0,0,0,0,
6.100437, 11:45:57.685,0,0,0,0,0,0,0,0,0,
6.138232, 11:45:57.721,0,0,0,0,0,0,0,0,0,
6.175411, 11:45:57.759,0,0,0,0,0,0,0,0,0,
6.213289, 11:45:57.796,0,0,0,0,0,0,0,0,0,
6.24724, 11:45:57.832,0,0,0,0,0,0,0,0,0,
6.283126, 11:45:57.866,0,0,0,0,0,0,0,0,0,
6.318268, 11:45:57.901,0,0,0,0,0,0,0,0,0,
6.359593, 11:45:57.943,0,0,0,0,0,0,0,0,0,
6.396494, 11:45:57.980,0,0,0,0,0,0,0,0,0,
6.433244, 11:45:58.017,0,0,0,0,0,0,0,0,0,
6.466419, 11:45:58.050,0,0,0,0,0,0,0,0,0,
6.499124, 11:45:58.083,0,0,0,0,0,0,0,0,0,
6.543364, 11:45:58.128,0,0,0,0,0,0,0,0,0,
6.593508, 11:45:58.177,0,0,0,0,0,0,0,0,0,
6.630085, 11:45:58.214,0,0,0,0,0,0,0,0,0,
6.674833, 11:45:58.259,0,0,0,0,0,0,0,0,0,
6.710557, 11:45:58.294,0,0,0,0,0,0,0,0,0,
6.748105, 11:45:58.332,0,0,0,0,0,0,0,0,0,
6.783013, 11:45:58.368,0,0,0,0,0,0,0,0,0,
6.817646, 11:45:58.401,0,0,0,0,0,0,0,0,0,
6.853036, 11:45:58.437,0,0,0,0,0,0,0,0,0,
6.888501, 11:45:58.471,0,0,0,0,0,0,0,0,0,
6.925673, 11:45:58.509,0,0,0,0,0,0,0,0,0,
6.961323, 11:45:58.544,0,0,0,0,0,0,0,0,0,
6.995453, 11:45:58.579,0,0,0,0,0,0,0,0,0,
7.028512, 11:45:58.612,0,0,0,0,0,0,0,0,0,
7.068518, 11:45:58.652,0,0,0,0,0,0,0,0,0,
7.105345, 11:45:58.690,0,0,0,0,0,0,0,0,0,
7.143022, 11:45:58.727,0,0,0,0,0,0,0,0,0,
7.178265, 11:45:58.761,0,0,0,0,0,0,0,0,0,
7.215447, 11:45:58.800,0,0,0,0,0,0,0,0,0,
7.250738, 11:45:58.835,0,0,0,0,0,0,0,0,0,
7.28586, 11:45:58.869,0,0,0,0,0,0,0,0,0,
7.319407, 11:45:58.902,0,0,0,0,0,0,0,0,0,
7.354888, 11:45:58.938,0,0,0,0,0,0,0,0,0,
7.393994, 11:45:58.977,0,0,0,0,0,0,0,0,0,
7.432584, 11:45:59.016,0,0,0,0,0,0,0,0,0,
7.465249, 11:45:59.050,0,0,0,0,0,0,0,0,0,
7.498836, 11:45:59.081,0,0,0,0,0,0,0,0,0,
7.538158, 11:45:59.122,0,0,0,0,0,0,0,0,0,
7.574484, 11:45:59.158,0,0,0,0,0,0,0,0,0,
7.611839, 11:45:59.196,0,0,0,0,0,0,0,0,0,
7.650691, 11:45:59.235,0,0,0,0,0,0,0,0,0,
7.68978, 11:45:59.274,0,0,0,0,0,0,0,0,0,
7.731059, 11:45:59.316,0,0,0,0,0,0,0,0,0,
7.783679, 11:45:59.368,0,0,0,0,0,0,0,0,0,
7.819302, 11:45:59.402,0,0,0,0,0,0,0,0,0,
7.855798, 11:45:59.439,0,0,0,0,0,0,0,0,0,
7.891828, 11:45:59.476,0,0,0,0,0,0,0,0,0,
7.932049, 11:45:59.516,0,0,0,0,0,0,0,0,0,
7.968234, 11:45:59.552,0,0,0,0,0,0,0,0,0,
8.001886, 11:45:59.586,0,0,0,0,0,0,0,0,0,
8.035169, 11:45:59.618,0,0,0,0,0,0,0,0,0,
8.074722, 11:45:59.658,0,0,0,0,0,0,0,0,0,
8.111079, 11:45:59.695,0,0,0,0,0,0,0,0,0,
8.144048, 11:45:59.728,0,0,0,0,0,0,0,0,0,
8.178891, 11:45:59.762,0,0,0,0,0,0,0,0,0,
8.212569, 11:45:59.797,0,0,0,0,0,0,0,0,0,
8.250034, 11:45:59.834,0,0,0,0,0,0,0,0,0,
8.287922, 11:45:59.872,0,0,0,0,0,0,0,0,0,
8.323337, 11:45:59.908,0,0,0,0,0,0,0,0,0,
8.358488, 11:45:59.941,0,0,0,0,0,0,0,0,0,
8.392587, 11:45:59.976,0,0,0,0,0,0,0,0,0,
8.436274, 11:46:00.020,0,0,0,0,0,0,0,0,0,
8.473859, 11:46:00.057,0,0,0,0,0,0,0,0,0,
8.510697, 11:46:00.095,0,0,0,0,0,0,0,0,0,
8.548557, 11:46:00.132,0,0,0,0,0,0,0,0,0,
8.585653, 11:46:00.170,0,0,0,0,0,0,0,0,0,
8.62444, 11:46:00.209,0,0,0,0,0,0,0,0,0,
8.658947, 11:46:00.242,0,0,0,0,0,0,0,0,0,
8.691676, 11:46:00.276,0,0,0,0,0,0,0,0,0,
8.727362, 11:46:00.311,0,0,0,0,0,0,0,0,0,
8.765462, 11:46:00.349,0,0,0,0,0,0,0,0,0,
8.803388, 11:46:00.387,0,0,0,0,0,0,0,0,0,
8.838939, 11:46:00.423,0,0,0,0,0,0,0,0,0,
8.877872, 11:46:00.463,0,0,0,0,0,0,0,0,0,
8.931381, 11:46:00.518,0,0,0,0,0,0,0,0,0,
8.973989, 11:46:00.557,0,0,0,0,0,0,0,0,0,
9.009456, 11:46:00.593,0,0,0,0,0,0,0,0,0,
9.043183, 11:46:00.627,0,0,0,0,0,0,0,0,0,
9.082067, 11:46:00.666,0,0,0,0,0,0,0,0,0,
9.120798, 11:46:00.705,0,0,0,0,0,0,0,0,0,
9.154753, 11:46:00.738,0,0,0,0,0,0,0,0,0,
9.190057, 11:46:00.774,0,0,0,0,0,0,0,0,0,
9.224541, 11:46:00.808,0,0,0,0,0,0,0,0,0,
9.264165, 11:46:00.848,0,0,0,0,0,0,0,0,0,
9.299833, 11:46:00.888,0,0,0,0,0,0,0,0,0,
9.344666, 11:46:00.930,0,0,0,0,0,0,0,0,0,
9.381876, 11:46:00.966,0,0,0,0,0,0,0,0,0,
9.422017, 11:46:01.005,0,0,0,0,0,0,0,0,0,
9.460099, 11:46:01.043,0,0,0,0,0,0,0,0,0,
9.493663, 11:46:01.077,0,0,0,0,0,0,0,0,0,
9.527721, 11:46:01.111,0,0,0,0,0,0,0,0,0,
9.562322, 11:46:01.146,0,0,0,0,0,0,0,0,0,
9.604323, 11:46:01.189,0,0,0,0,0,0,0,0,0,
9.644169, 11:46:01.228,0,0,0,0,0,0,0,0,0,
9.680444, 11:46:01.265,0,0,0,0,0,0,0,0,0,
9.716654, 11:46:01.300,0,0,0,0,0,0,0,0,0,
9.755189, 11:46:01.339,0,0,0,0,0,0,0,0,0,
9.792187, 11:46:01.376,0,0,0,0,0,0,0,0,0,
9.828388, 11:46:01.412,0,0,0,0,0,0,0,0,0,
9.86481, 11:46:01.449,0,0,0,0,0,0,0,0,0,
9.90322, 11:46:01.488,0,0,0,0,0,0,0,0,0,
9.943964, 11:46:01.529,0,0,0,0,0,0,0,0,0,
9.980345, 11:46:01.565,0,0,0,0,0,0,0,0,0,
10.01889, 11:46:01.602,0,0,0,0,0,0,0,0,0,
10.05754, 11:46:01.642,0,0,0,0,0,0,0,0,0,
10.111, 11:46:01.696,0,0,0,0,0,0,0,0,0,
10.15263, 11:46:01.737,0,0,0,0,0,0,0,0,0,
10.1861, 11:46:01.770,0,0,0,0,0,0,0,0,0,
10.22072, 11:46:01.810,0,0,0,0,0,0,0,0,0,
10.2623, 11:46:01.847,0,0,0,0,0,0,0,0,0,
10.30075, 11:46:01.886,0,0,0,0,0,0,0,0,0,
10.33681, 11:46:01.921,0,0,0,0,0,0,0,0,0,
10.37407, 11:46:01.959,0,0,0,0,0,0,0,0,0,
10.41621, 11:46:02.000,0,0,0,0,0,0,0,0,0,
10.45412, 11:46:02.038,0,0,0,0,0,0,0,0,0,
10.48837, 11:46:02.072,0,0,0,0,0,0,0,0,0,
10.52477, 11:46:02.108,0,0,0,0,0,0,0,0,0,
10.56445, 11:46:02.149,0,0,0,0,0,0,0,0,0,
10.6018, 11:46:02.186,0,0,0,0,0,0,0,0,0,
10.63624, 11:46:02.219,0,0,0,0,0,0,0,0,0,
10.66862, 11:46:02.253,0,0,0,0,0,0,0,0,0,
10.70143, 11:46:02.285,0,0,0,0,0,0,0,0,0,
10.74369, 11:46:02.327,0,0,0,0,0,0,0,0,0,
10.78118, 11:46:02.364,0,0,0,0,0,0,0,0,0,
10.8134, 11:46:02.397,0,0,0,0,0,0,0,0,0,
10.84679, 11:46:02.430,0,0,0,0,0,0,0,0,0,
10.87924, 11:46:02.462,0,0,0,0,0,0,0,0,0,
10.91447, 11:46:02.499,0,0,0,0,0,0,0,0,0,
10.95389, 11:46:02.538,0,0,0,0,0,0,0,0,0,
10.98892, 11:46:02.573,0,0,0,0,0,0,0,0,0,
11.02414, 11:46:02.609,0,0,0,0,0,0,0,0,0,
11.06057, 11:46:02.646,0,0,0,0,0,0,0,0,0,
11.10788, 11:46:02.691,0,0,0,0,0,0,0,0,0,
11.1449, 11:46:02.728,0,0,0,0,0,0,0,0,0,
11.18573, 11:46:02.770,0,0,0,0,0,0,0,0,0,
11.22565, 11:46:02.810,0,0,0,0,0,0,0,0,0,
11.27539, 11:46:02.859,0,0,0,0,0,0,0,0,0,
11.31497, 11:46:02.899,0,0,0,0,0,0,0,0,0,
11.35054, 11:46:02.935,0,0,0,0,0,0,0,0,0,
11.38642, 11:46:02.970,0,0,0,0,0,0,0,0,0,
11.42377, 11:46:03.007,0,0,0,0,0,0,0,0,0,
11.46017, 11:46:03.044,0,0,0,0,0,0,0,0,0,
11.49516, 11:46:03.077,0,0,0,0,0,0,0,0,0,
11.53475, 11:46:03.118,0,0,0,0,0,0,0,0,0,
11.57032, 11:46:03.154,0,0,0,0,0,0,0,0,0,
11.6103, 11:46:03.194,0,0,0,0,0,0,0,0,0,
11.64997, 11:46:03.234,0,0,0,0,0,0,0,0,0,
11.68355, 11:46:03.268,0,0,0,0,0,0,0,0,0,
11.72194, 11:46:03.306,0,0,0,0,0,0,0,0,0,
11.76154, 11:46:03.346,0,0,0,0,0,0,0,0,0,
11.79777, 11:46:03.381,0,0,0,0,0,0,0,0,0,
11.83144, 11:46:03.416,0,0,0,0,0,0,0,0,0,
11.86547, 11:46:03.449,0,0,0,0,0,0,0,0,0,
11.89951, 11:46:03.482,0,0,0,0,0,0,0,0,0,
11.94195, 11:46:03.527,0,0,0,0,0,0,0,0,0,
11.98012, 11:46:03.564,0,0,0,0,0,0,0,0,0,
12.02241, 11:46:03.606,0,0,0,0,0,0,0,0,0,
12.05955, 11:46:03.642,0,0,0,0,0,0,0,0,0,
12.09551, 11:46:03.678,0,0,0,0,0,0,0,0,0,
12.13096, 11:46:03.714,0,0,0,0,0,0,0,0,0,
12.1638, 11:46:03.747,0,0,0,0,0,0,0,0,0,
12.19776, 11:46:03.781,0,0,0,0,0,0,0,0,0,
12.23192, 11:46:03.816,0,0,0,0,0,0,0,0,0,
12.27106, 11:46:03.855,0,0,0,0,0,0,0,0,0,
12.30791, 11:46:03.891,0,0,0,0,0,0,0,0,0,
12.34782, 11:46:03.932,0,0,0,0,0,0,0,0,0,
12.38692, 11:46:03.972,0,0,0,0,0,0,0,0,0,
12.43575, 11:46:04.019,0,0,0,0,0,0,0,0,0,
12.47713, 11:46:04.061,0,0,0,0,0,0,0,0,0,
12.51197, 11:46:04.096,0,0,0,0,0,0,0,0,0,
12.54963, 11:46:04.134,0,0,0,0,0,0,0,0,0,
12.59086, 11:46:04.174,0,0,0,0,0,0,0,0,0,
12.62748, 11:46:04.211,0,0,0,0,0,0,0,0,0,
12.66164, 11:46:04.246,0,0,0,0,0,0,0,0,0,
12.69775, 11:46:04.281,0,0,0,0,0,0,0,0,0,
12.73127, 11:46:04.315,0,0,0,0,0,0,0,0,0,
12.76855, 11:46:04.352,0,0,0,0,0,0,0,0,0,
12.80537, 11:46:04.389,0,0,0,0,0,0,0,0,0,
12.8395, 11:46:04.422,0,0,0,0,0,0,0,0,0,
12.87315, 11:46:04.457,0,0,0,0,0,0,0,0,0,
12.91415, 11:46:04.498,0,0,0,0,0,0,0,0,0,
12.95129, 11:46:04.536,0,0,0,0,0,0,0,0,0,
12.98847, 11:46:04.573,0,0,0,0,0,0,0,0,0,
13.02475, 11:46:04.609,0,0,0,0,0,0,0,0,0,
13.06115, 11:46:04.646,0,0,0,0,0,0,0,0,0,
13.09497, 11:46:04.678,0,0,0,0,0,0,0,0,0,
13.13557, 11:46:04.719,0,0,0,0,0,0,0,0,0,
13.1737, 11:46:04.757,0,0,0,0,0,0,0,0,0,
13.20795, 11:46:04.791,0,0,0,0,0,0,0,0,0,
13.24241, 11:46:04.826,0,0,0,0,0,0,0,0,0,
13.27567, 11:46:04.859,0,0,0,0,0,0,0,0,0,
13.31123, 11:46:04.896,0,0,0,0,0,0,0,0,0,
13.35506, 11:46:04.939,0,0,0,0,0,0,0,0,0,
13.38998, 11:46:04.975,0,0,0,0,0,0,0,0,0,
13.42427, 11:46:05.009,0,0,0,0,0,0,0,0,0,
13.46126, 11:46:05.046,0,0,0,0,0,0,0,0,0,
13.50293, 11:46:05.087,0,0,0,0,0,0,0,0,0,
13.5469, 11:46:05.131,0,0,0,0,0,0,0,0,0,
13.59897, 11:46:05.183,0,0,0,0,0,0,0,0,0,
13.63255, 11:46:05.217,0,0,0,0,0,0,0,0,0,
13.67126, 11:46:05.255,0,0,0,0,0,0,0,0,0,
13.70876, 11:46:05.292,0,0,0,0,0,0,0,0,0,
13.7407, 11:46:05.325,0,0,0,0,0,0,0,0,0,
13.77803, 11:46:05.360,0,0,0,0,0,0,0,0,0,
13.81931, 11:46:05.403,0,0,0,0,0,0,0,0,0,
13.85551, 11:46:05.439,0,0,0,0,0,0,0,0,0,
13.89427, 11:46:05.477,0,0,0,0,0,0,0,0,0,
13.92695, 11:46:05.510,0,0,0,0,0,0,0,0,0,
13.96153, 11:46:05.545,0,0,0,0,0,0,0,0,0,
13.99742, 11:46:05.580,0,0,0,0,0,0,0,0,0,
14.03433, 11:46:05.619,0,0,0,0,0,0,0,0,0,
14.07195, 11:46:05.656,0,0,0,0,0,0,0,0,0,
14.10483, 11:46:05.689,0,0,0,0,0,0,0,0,0,
14.13814, 11:46:05.721,0,0,0,0,0,0,0,0,0,
14.17265, 11:46:05.757,0,0,0,0,0,0,0,0,0,
14.20981, 11:46:05.794,0,0,0,0,0,0,0,0,0,
14.24797, 11:46:05.831,0,0,0,0,0,0,0,0,0,
14.28307, 11:46:05.867,0,0,0,0,0,0,0,0,0,
14.31698, 11:46:05.900,0,0,0,0,0,0,0,0,0,
14.35269, 11:46:05.936,0,0,0,0,0,0,0,0,0,
14.38897, 11:46:05.973,0,0,0,0,0,0,0,0,0,
14.42631, 11:46:06.010,0,0,0,0,0,0,0,0,0,
14.46159, 11:46:06.046,0,0,0,0,0,0,0,0,0,
14.49588, 11:46:06.079,0,0,0,0,0,0,0,0,0,
14.52871, 11:46:06.113,0,0,0,0,0,0,0,0,0,
14.56485, 11:46:06.149,0,0,0,0,0,0,0,0,0,
14.60042, 11:46:06.184,0,0,0,0,0,0,0,0,0,
14.63834, 11:46:06.222,0,0,0,0,0,0,0,0,0,
14.68596, 11:46:06.271,0,0,0,0,0,0,0,0,0,
14.73054, 11:46:06.315,0,0,0,0,0,0,0,0,0,
14.7757, 11:46:06.360,0,0,0,0,0,0,0,0,0,
14.8138, 11:46:06.398,0,0,0,0,0,0,0,0,0,
14.85017, 11:46:06.434,0,0,0,0,0,0,0,0,0,
14.89206, 11:46:06.476,0,0,0,0,0,0,0,0,0,
14.93206, 11:46:06.517,0,0,0,0,0,0,0,0,0,
14.96939, 11:46:06.553,0,0,0,0,0,0,0,0,0,
15.00356, 11:46:06.587,0,0,0,0,0,0,0,0,0,
15.04233, 11:46:06.626,0,0,0,0,0,0,0,0,0,
15.08308, 11:46:06.667,0,0,0,0,0,0,0,0,0,
15.12054, 11:46:06.705,0,0,0,0,0,0,0,0,0,
15.15439, 11:46:06.737,0,0,0,0,0,0,0,0,0,
15.1899, 11:46:06.774,0,0,0,0,0,0,0,0,0,
15.22564, 11:46:06.809,0,0,0,0,0,0,0,0,0,
15.25794, 11:46:06.841,0,0,0,0,0,0,0,0,0,
15.28954, 11:46:06.873,0,0,0,0,0,0,0,0,0,
15.32538, 11:46:06.908,0,0,0,0,0,0,0,0,0,
15.36518, 11:46:06.950,0,0,0,0,0,0,0,0,0,
15.41016, 11:46:06.994,0,0,0,0,0,0,0,0,0,
15.45179, 11:46:07.036,0,0,0,0,0,0,0,0,0,
15.49033, 11:46:07.075,0,0,0,0,0,0,0,0,0,
15.53909, 11:46:07.124,0,0,0,0,0,0,0,0,0,
15.57864, 11:46:07.162,0,0,0,0,0,0,0,0,0,
15.62095, 11:46:07.205,0,0,0,0,0,0,0,0,0,
15.65801, 11:46:07.241,0,0,0,0,0,0,0,0,0,
15.69565, 11:46:07.279,0,0,0,0,0,0,0,0,0,
15.73864, 11:46:07.324,0,0,0,0,0,0,0,0,0,
15.77392, 11:46:07.358,0,0,0,0,0,0,0,0,0,
15.80923, 11:46:07.393,0,0,0,0,0,0,0,0,0,
15.85111, 11:46:07.435,0,0,0,0,0,0,0,0,0,
15.89822, 11:46:07.484,0,0,0,0,0,0,0,0,0,
15.94687, 11:46:07.532,0,0,0,0,0,0,0,0,0,
15.98486, 11:46:07.570,0,0,0,0,0,0,0,0,0,
16.02806, 11:46:07.612,0,0,0,0,0,0,0,0,0,
16.07015, 11:46:07.654,0,0,0,0,0,0,0,0,0,
16.10679, 11:46:07.691,0,0,0,0,0,0,0,0,0,
16.14378, 11:46:07.727,0,0,0,0,0,0,0,0,0,
16.18416, 11:46:07.767,0,0,0,0,0,0,0,0,0,
16.23031, 11:46:07.814,0,0,0,0,0,0,0,0,0,
16.26893, 11:46:07.852,0,0,0,0,0,0,0,0,0,
16.30264, 11:46:07.887,0,0,0,0,0,0,0,0,0,
16.34371, 11:46:07.927,0,0,0,0,0,0,0,0,0,
16.38398, 11:46:07.968,0,0,0,0,0,0,0,0,0,
16.42633, 11:46:08.011,0,0,0,0,0,0,0,0,0,
16.47387, 11:46:08.059,0,0,0,0,0,0,0,0,0,
16.52003, 11:46:08.106,0,0,0,0,0,0,0,0,0,
16.56333, 11:46:08.148,0,0,0,0,0,0,0,0,0,
16.60461, 11:46:08.189,0,0,0,0,0,0,0,0,0,
16.64037, 11:46:08.224,0,0,0,0,0,0,0,0,0,
16.67998, 11:46:08.263,0,0,0,0,0,0,0,0,0,
16.71764, 11:46:08.301,0,0,0,0,0,0,0,0,0,
16.75419, 11:46:08.339,0,0,0,0,0,0,0,0,0,
16.79603, 11:46:08.380,0,0,0,0,0,0,0,0,0,
16.84227, 11:46:08.427,0,0,0,0,0,0,0,0,0,
16.88374, 11:46:08.468,0,0,0,0,0,0,0,0,0,
16.92601, 11:46:08.509,0,0,0,0,0,0,0,0,0,
16.97043, 11:46:08.554,0,0,0,0,0,0,0,0,0,
17.01953, 11:46:08.605,0,0,0,0,0,0,0,0,0,
17.06831, 11:46:08.654,0,0,0,0,0,0,0,0,0,
17.11387, 11:46:08.699,0,0,0,0,0,0,0,0,0,
17.14957, 11:46:08.733,0,0,0,0,0,0,0,0,0,
17.19562, 11:46:08.779,0,0,0,0,0,0,0,0,0,
17.23919, 11:46:08.822,0,0,0,0,0,0,0,0,0,
17.28338, 11:46:08.868,0,0,0,0,0,0,0,0,0,
17.32638, 11:46:08.911,0,0,0,0,0,0,0,0,0,
17.37283, 11:46:08.957,0,0,0,0,0,0,0,0,0,
17.4173, 11:46:09.002,0,0,0,0,0,0,0,0,0,
17.45908, 11:46:09.044,0,0,0,0,0,0,0,0,0,
17.50535, 11:46:09.091,0,0,0,0,0,0,0,0,0,
17.55035, 11:46:09.135,0,0,0,0,0,0,0,0,0,
17.59492, 11:46:09.179,0,0,0,0,0,0,0,0,0,
17.63679, 11:46:09.222,0,0,0,0,0,0,0,0,0,
17.68182, 11:46:09.267,0,0,0,0,0,0,0,0,0,
17.7302, 11:46:09.314,0,0,0,0,0,0,0,0,0,
17.77299, 11:46:09.358,0,0,0,0,0,0,0,0,0,
17.81448, 11:46:09.399,0,0,0,0,0,0,0,0,0,
17.85981, 11:46:09.445,0,0,0,0,0,0,0,0,0,
17.90717, 11:46:09.492,0,0,0,0,0,0,0,0,0,
17.95351, 11:46:09.537,0,0,0,0,0,0,0,0,0,
17.99498, 11:46:09.579,0,0,0,0,0,0,0,0,0,
18.03672, 11:46:09.621,0,0,0,0,0,0,0,0,0,
18.08401, 11:46:09.669,0,0,0,0,0,0,0,0,0,
18.13038, 11:46:09.715,0,0,0,0,0,0,0,0,0,
18.17722, 11:46:09.763,0,0,0,0,0,0,0,0,0,
18.21674, 11:46:09.802,0,0,0,0,0,0,0,0,0,
18.27013, 11:46:09.856,0,0,0,0,0,0,0,0,0,
18.31244, 11:46:09.897,0,0,0,0,0,0,0,0,0,
18.34774, 11:46:09.932,0,0,0,0,0,0,0,0,0,
18.3942, 11:46:09.978,0,0,0,0,0,0,0,0,0,
18.44032, 11:46:10.025,0,0,0,0,0,0,0,0,0,
18.48646, 11:46:10.070,0,0,0,0,0,0,0,0,0,
18.52522, 11:46:10.110,0,0,0,0,0,0,0,0,0,
18.57312, 11:46:10.157,0,0,0,0,0,0,0,0,0,
18.62092, 11:46:10.207,0,0,0,0,0,0,0,0,0,
18.66672, 11:46:10.251,0,0,0,0,0,0,0,0,0,
18.70462, 11:46:10.289,0,0,0,0,0,0,0,0,0,
18.74365, 11:46:10.327,0,0,0,0,0,0,0,0,0,
18.78756, 11:46:10.371,0,0,0,0,0,0,0,0,0,
18.82892, 11:46:10.414,0,0,0,0,0,0,0,0,0,
18.86672, 11:46:10.451,0,0,0,0,0,0,0,0,0,
18.90145, 11:46:10.486,0,0,0,0,0,0,0,0,0,
18.95299, 11:46:10.536,0,0,0,0,0,0,0,0,0,
18.9892, 11:46:10.573,0,0,0,0,0,0,0,0,0,
19.03076, 11:46:10.615,0,0,0,0,0,0,0,0,0,
19.07067, 11:46:10.655,0,0,0,0,0,0,0,0,0,
19.10831, 11:46:10.693,0,0,0,0,0,0,0,0,0,
19.14632, 11:46:10.729,0,0,0,0,0,0,0,0,0,
19.18287, 11:46:10.766,0,0,0,0,0,0,0,0,0,
19.21954, 11:46:10.802,0,0,0,0,0,0,0,0,0,
19.25696, 11:46:10.840,0,0,0,0,0,0,0,0,0,
19.29348, 11:46:10.877,0,0,0,0,0,0,0,0,0,
19.32969, 11:46:10.915,0,0,0,0,0,0,0,0,0,
19.37177, 11:46:10.957,0,0,0,0,0,0,0,0,0,
19.41291, 11:46:10.998,0,0,0,0,0,0,0,0,0,
19.4553, 11:46:11.040,0,0,0,0,0,0,0,0,0,
19.50469, 11:46:11.090,0,0,0,0,0,0,0,0,0,
19.54036, 11:46:11.124,0,0,0,0,0,0,0,0,0,
19.57455, 11:46:11.157,0,0,0,0,0,0,0,0,0,
19.61508, 11:46:11.198,0,0,0,0,0,0,0,0,0,
19.66504, 11:46:11.249,0,0,0,0,0,0,0,0,0,
19.76697, 11:46:11.354,0,0,0,0,0,0,0,0,0,
19.82092, 11:46:11.407,0,0,0,0,0,0,0,0,0,
19.85748, 11:46:11.440,0,0,0,0,0,0,0,0,0,
19.90812, 11:46:11.493,0,0,0,0,0,0,0,0,0,
19.96855, 11:46:11.553,0,0,0,0,0,0,0,0,0,
20.01579, 11:46:11.600,0,0,0,0,0,0,0,0,0,
20.05292, 11:46:11.637,0,0,0,0,0,0,0,0,0,
20.09777, 11:46:11.681,0,0,0,0,0,0,0,0,0,
20.16101, 11:46:11.746,0,0,0,0,0,0,0,0,0,
20.20351, 11:46:11.787,0,0,0,0,0,0,0,0,0,
20.25019, 11:46:11.833,0,0,0,0,0,0,0,0,0,
20.28993, 11:46:11.873,0,0,0,0,0,0,0,0,0,
20.32916, 11:46:11.913,0,0,0,0,0,0,0,0,0,
20.37271, 11:46:11.957,0,0,0,0,0,0,0,0,0,
20.41183, 11:46:11.996,0,0,0,0,0,0,0,0,0,
20.45096, 11:46:12.035,0,0,0,0,0,0,0,0,0,
20.4906, 11:46:12.075,0,0,0,0,0,0,0,0,0,
20.54057, 11:46:12.126,0,0,0,0,0,0,0,0,0,
20.59089, 11:46:12.175,0,0,0,0,0,0,0,0,0,
20.62879, 11:46:12.212,0,0,0,0,0,0,0,0,0,
20.6684, 11:46:12.251,0,0,0,0,0,0,0,0,0,
20.70834, 11:46:12.292,0,0,0,0,0,0,0,0,0,
20.74481, 11:46:12.328,0,0,0,0,0,0,0,0,0,
20.77931, 11:46:12.362,0,0,0,0,0,0,0,0,0,
20.81169, 11:46:12.395,0,0,0,0,0,0,0,0,0,
20.8526, 11:46:12.436,0,0,0,0,0,0,0,0,0,
20.91621, 11:46:12.500,0,0,0,0,0,0,0,0,0,
20.95624, 11:46:12.540,0,0,0,0,0,0,0,0,0,
20.99361, 11:46:12.579,0,0,0,0,0,0,0,0,0,
21.03247, 11:46:12.616,0,0,0,0,0,0,0,0,0,
21.07334, 11:46:12.657,0,0,0,0,0,0,0,0,0,
21.12099, 11:46:12.705,0,0,0,0,0,0,0,0,0,
21.159, 11:46:12.742,0,0,0,0,0,0,0,0,0,
21.19228, 11:46:12.776,0,0,0,0,0,0,0,0,0,
21.23452, 11:46:12.818,0,0,0,0,0,0,0,0,0,
21.27284, 11:46:12.857,0,0,0,0,0,0,0,0,0,
21.3088, 11:46:12.893,0,0,0,0,0,0,0,0,0,
21.35253, 11:46:12.937,0,0,0,0,0,0,0,0,0,
21.39357, 11:46:12.977,0,0,0,0,0,0,0,0,0,
21.43202, 11:46:13.015,0,0,0,0,0,0,0,0,0,
21.46876, 11:46:13.052,0,0,0,0,0,0,0,0,0,
21.50684, 11:46:13.090,0,0,0,0,0,0,0,0,0,
21.54628, 11:46:13.130,0,0,0,0,0,0,0,0,0,
21.58292, 11:46:13.166,0,0,0,0,0,0,0,0,0,
21.61711, 11:46:13.200,0,0,0,0,0,0,0,0,0,
21.65012, 11:46:13.235,0,0,0,0,0,0,0,0,0,
21.69125, 11:46:13.276,0,0,0,0,0,0,0,0,0,
21.74376, 11:46:13.332,0,0,0,0,0,0,0,0,0,
21.78969, 11:46:13.374,0,0,0,0,0,0,0,0,0,
21.82974, 11:46:13.413,0,0,0,0,0,0,0,0,0,
21.86279, 11:46:13.446,0,0,0,0,0,0,0,0,0,
21.90155, 11:46:13.484,0,0,0,0,0,0,0,0,0,
21.93642, 11:46:13.520,0,0,0,0,0,0,0,0,0,
21.97549, 11:46:13.560,0,0,0,0,0,0,0,0,0,
22.00911, 11:46:13.593,0,0,0,0,0,0,0,0,0,
22.04487, 11:46:13.628,0,0,0,0,0,0,0,0,0,
22.08473, 11:46:13.668,0,0,0,0,0,0,0,0,0,
22.12225, 11:46:13.706,0,0,0,0,0,0,0,0,0,
22.16087, 11:46:13.746,0,0,0,0,0,0,0,0,0,
22.2003, 11:46:13.785,0,0,0,0,0,0,0,0,0,
22.24043, 11:46:13.824,0,0,0,0,0,0,0,0,0,
22.28017, 11:46:13.864,0,0,0,0,0,0,0,0,0,
22.31441, 11:46:13.898,0,0,0,0,0,0,0,0,0,
22.34935, 11:46:13.935,0,0,0,0,0,0,0,0,0,
22.38483, 11:46:13.970,0,0,0,0,0,0,0,0,0,
22.42435, 11:46:14.008,0,0,0,0,0,0,0,0,0,
22.46183, 11:46:14.046,0,0,0,0,0,0,0,0,0,
22.49897, 11:46:14.081,0,0,0,0,0,0,0,0,0,
22.53216, 11:46:14.116,0,0,0,0,0,0,0,0,0,
22.56741, 11:46:14.151,0,0,0,0,0,0,0,0,0,
22.60691, 11:46:14.191,0,0,0,0,0,0,0,0,0,
22.64497, 11:46:14.228,0,0,0,0,0,0,0,0,0,
22.6781, 11:46:14.261,0,0,0,0,0,0,0,0,0,
22.71327, 11:46:14.297,0,0,0,0,0,0,0,0,0,
22.74677, 11:46:14.331,0,0,0,0,0,0,0,0,0,
22.78548, 11:46:14.370,0,0,0,0,0,0,0,0,0,
22.82809, 11:46:14.412,0,0,0,0,0,0,0,0,0,
22.86983, 11:46:14.454,0,0,0,0,0,0,0,0,0,
22.91581, 11:46:14.501,0,0,0,0,0,0,0,0,0,
22.96371, 11:46:14.548,0,0,0,0,0,0,0,0,0,
23.00283, 11:46:14.586,0,0,0,0,0,0,0,0,0,
23.03873, 11:46:14.622,0,0,0,0,0,0,0,0,0,
23.07608, 11:46:14.660,0,0,0,0,0,0,0,0,0,
23.12099, 11:46:14.706,0,0,0,0,0,0,0,0,0,
23.16268, 11:46:14.747,0,0,0,0,0,0,0,0,0,
23.19903, 11:46:14.781,0,0,0,0,0,0,0,0,0,
23.2346, 11:46:14.818,0,0,0,0,0,0,0,0,0,
23.27571, 11:46:14.860,0,0,0,0,0,0,0,0,0,
23.31413, 11:46:14.899,0,0,0,0,0,0,0,0,0,
23.35011, 11:46:14.935,0,0,0,0,0,0,0,0,0,
23.38798, 11:46:14.972,0,0,0,0,0,0,0,0,0,
23.4319, 11:46:15.015,0,0,0,0,0,0,0,0,0,
23.47349, 11:46:15.057,0,0,0,0,0,0,0,0,0,
23.50676, 11:46:15.091,0,0,0,0,0,0,0,0,0,
23.54402, 11:46:15.127,0,0,0,0,0,0,0,0,0,
23.58588, 11:46:15.169,0,0,0,0,0,0,0,0,0,
23.62498, 11:46:15.209,0,0,0,0,0,0,0,0,0,
23.66105, 11:46:15.245,0,0,0,0,0,0,0,0,0,
23.70414, 11:46:15.289,0,0,0,0,0,0,0,0,0,
23.75073, 11:46:15.335,0,0,0,0,0,0,0,0,0,
23.78776, 11:46:15.372,0,0,0,0,0,0,0,0,0,
23.82582, 11:46:15.409,0,0,0,0,0,0,0,0,0,
23.86283, 11:46:15.447,0,0,0,0,0,0,0,0,0,
23.9057, 11:46:15.490,0,0,0,0,0,0,0,0,0,
23.94556, 11:46:15.528,0,0,0,0,0,0,0,0,0,
23.9794, 11:46:15.562,0,0,0,0,0,0,0,0,0,
24.01971, 11:46:15.605,0,0,0,0,0,0,0,0,0,
24.07832, 11:46:15.664,0,0,0,0,0,0,0,0,0,
24.11864, 11:46:15.703,0,0,0,0,0,0,0,0,0,
24.15692, 11:46:15.741,0,0,0,0,0,0,0,0,0,
24.19096, 11:46:15.775,0,0,0,0,0,0,0,0,0,
24.23234, 11:46:15.816,0,0,0,0,0,0,0,0,0,
24.27033, 11:46:15.854,0,0,0,0,0,0,0,0,0,
24.30379, 11:46:15.887,0,0,0,0,0,0,0,0,0,
24.33983, 11:46:15.923,0,0,0,0,0,0,0,0,0,
24.37419, 11:46:15.958,0,0,0,0,0,0,0,0,0,
24.41897, 11:46:16.003,0,0,0,0,0,0,0,0,0,
24.45876, 11:46:16.043,0,0,0,0,0,0,0,0,0,
24.49965, 11:46:16.083,0,0,0,0,0,0,0,0,0,
24.53354, 11:46:16.118,0,0,0,0,0,0,0,0,0,
24.57994, 11:46:16.165,0,0,0,0,0,0,0,0,0,
24.62205, 11:46:16.208,0,0,0,0,0,0,0,0,0,
24.65805, 11:46:16.241,0,0,0,0,0,0,0,0,0,
24.69372, 11:46:16.278,0,0,0,0,0,0,0,0,0,
24.74859, 11:46:16.334,0,0,0,0,0,0,0,0,0,
24.79312, 11:46:16.377,0,0,0,0,0,0,0,0,0,
24.83087, 11:46:16.415,0,0,0,0,0,0,0,0,0,
24.88225, 11:46:16.467,0,0,0,0,0,0,0,0,0,
24.93007, 11:46:16.514,0,0,0,0,0,0,0,0,0,
24.97215, 11:46:16.557,0,0,0,0,0,0,0,0,0,
25.00833, 11:46:16.593,0,0,0,0,0,0,0,0,0,
25.05958, 11:46:16.644,0,0,0,0,0,0,0,0,0,
25.10611, 11:46:16.692,0,0,0,0,0,0,0,0,0,
25.15746, 11:46:16.744,0,0,0,0,0,0,0,0,0,
25.20346, 11:46:16.789,0,0,0,0,0,0,0,0,0,
25.26427, 11:46:16.850,0,0,0,0,0,0,0,0,0,
25.31368, 11:46:16.898,0,0,0,0,0,0,0,0,0,
25.35269, 11:46:16.937,0,0,0,0,0,0,0,0,0,
25.38639, 11:46:16.971,0,0,0,0,0,0,0,0,0,
25.42652, 11:46:17.010,0,0,0,0,0,0,0,0,0,
25.46519, 11:46:17.048,0,0,0,0,0,0,0,0,0,
25.5036, 11:46:17.091,0,0,0,0,0,0,0,0,0,
25.54233, 11:46:17.125,0,0,0,0,0,0,0,0,0,
25.5747, 11:46:17.157,0,0,0,0,0,0,0,0,0,
25.60833, 11:46:17.192,0,0,0,0,0,0,0,0,0,
25.65141, 11:46:17.234,0,0,0,0,0,0,0,0,0,
25.68984, 11:46:17.273,0,0,0,0,0,0,0,0,0,
25.72314, 11:46:17.307,0,0,0,0,0,0,0,0,0,
25.7564, 11:46:17.340,0,0,0,0,0,0,0,0,0,
25.79023, 11:46:17.375,0,0,0,0,0,0,0,0,0,
25.83055, 11:46:17.415,0,0,0,0,0,0,0,0,0,
25.86974, 11:46:17.453,0,0,0,0,0,0,0,0,0,
25.90334, 11:46:17.487,0,0,0,0,0,0,0,0,0,
25.93804, 11:46:17.520,0,0,0,0,0,0,0,0,0,
25.9721, 11:46:17.556,0,0,0,0,0,0,0,0,0,
26.01192, 11:46:17.595,0,0,0,0,0,0,0,0,0,
26.04905, 11:46:17.633,0,0,0,0,0,0,0,0,0,
26.08521, 11:46:17.669,0,0,0,0,0,0,0,0,0,
26.11848, 11:46:17.701,0,0,0,0,0,0,0,0,0,
26.1518, 11:46:17.737,0,0,0,0,0,0,0,0,0,
26.1935, 11:46:17.778,0,0,0,0,0,0,0,0,0,
26.23106, 11:46:17.815,0,0,0,0,0,0,0,0,0,
26.2642, 11:46:17.849,0,0,0,0,0,0,0,0,0,
26.30073, 11:46:17.885,0,0,0,0,0,0,0,0,0,
26.33768, 11:46:17.922,0,0,0,0,0,0,0,0,0,
26.38856, 11:46:17.973,0,0,0,0,0,0,0,0,0,
26.44016, 11:46:18.024,0,0,0,0,0,0,0,0,0,
26.4747, 11:46:18.058,0,0,0,0,0,0,0,0,0,
26.51041, 11:46:18.094,0,0,0,0,0,0,0,0,0,
26.55045, 11:46:18.134,0,0,0,0,0,0,0,0,0,
26.58613, 11:46:18.170,0,0,0,0,0,0,0,0,0,
26.62158, 11:46:18.206,0,0,0,0,0,0,0,0,0,
26.65587, 11:46:18.239,0,0,0,0,0,0,0,0,0,
26.68984, 11:46:18.273,0,0,0,0,0,0,0,0,0,
26.73789, 11:46:18.321,0,0,0,0,0,0,0,0,0,
26.7742, 11:46:18.359,0,0,0,0,0,0,0,0,0,
26.80949, 11:46:18.394,0,0,0,0,0,0,0,0,0,
26.84338, 11:46:18.427,0,0,0,0,0,0,0,0,0,
26.8833, 11:46:18.466,0,0,0,0,0,0,0,0,0,
26.91954, 11:46:18.502,0,0,0,0,0,0,0,0,0,
26.95439, 11:46:18.539,0,0,0,0,0,0,0,0,0,
26.98826, 11:46:18.572,0,0,0,0,0,0,0,0,0,
27.02242, 11:46:18.606,0,0,0,0,0,0,0,0,0,
27.06077, 11:46:18.644,0,0,0,0,0,0,0,0,0,
27.0967, 11:46:18.680,0,0,0,0,0,0,0,0,0,
27.12992, 11:46:18.714,0,0,0,0,0,0,0,0,0,
27.16692, 11:46:18.750,0,0,0,0,0,0,0,0,0,
27.20092, 11:46:18.785,0,0,0,0,0,0,0,0,0,
27.2449, 11:46:18.828,0,0,0,0,0,0,0,0,0,
27.28191, 11:46:18.866,0,0,0,0,0,0,0,0,0,
27.31524, 11:46:18.898,0,0,0,0,0,0,0,0,0,
27.34829, 11:46:18.933,0,0,0,0,0,0,0,0,0,
27.38565, 11:46:18.969,0,0,0,0,0,0,0,0,0,
27.42581, 11:46:19.009,0,0,0,0,0,0,0,0,0,
27.46226, 11:46:19.045,0,0,0,0,0,0,0,0,0,
27.49739, 11:46:19.081,0,0,0,0,0,0,0,0,0,
27.53422, 11:46:19.118,0,0,0,0,0,0,0,0,0,
27.58344, 11:46:19.169,0,0,0,0,0,0,0,0,0,
27.6323, 11:46:19.217,0,0,0,0,0,0,0,0,0,
27.67124, 11:46:19.255,0,0,0,0,0,0,0,0,0,
27.70539, 11:46:19.290,0,0,0,0,0,0,0,0,0,
27.74123, 11:46:19.324,0,0,0,0,0,0,0,0,0,
27.78397, 11:46:19.367,0,0,0,0,0,0,0,0,0,
27.82372, 11:46:19.407,0,0,0,0,0,0,0,0,0,
27.85707, 11:46:19.440,0,0,0,0,0,0,0,0,0,
27.88931, 11:46:19.472,0,0,0,0,0,0,0,0,0,
27.92413, 11:46:19.508,0,0,0,0,0,0,0,0,0,
27.96613, 11:46:19.549,0,0,0,0,0,0,0,0,0,
28.00101, 11:46:19.585,0,0,0,0,0,0,0,0,0,
28.03709, 11:46:19.620,0,0,0,0,0,0,0,0,0,
28.07101, 11:46:19.655,0,0,0,0,0,0,0,0,0,
28.10699, 11:46:19.691,0,0,0,0,0,0,0,0,0,
28.15049, 11:46:19.735,0,0,0,0,0,0,0,0,0,
28.18712, 11:46:19.771,0,0,0,0,0,0,0,0,0,
28.22001, 11:46:19.804,0,0,0,0,0,0,0,0,0,
28.25577, 11:46:19.838,0,0,0,0,0,0,0,0,0,
28.28918, 11:46:19.873,0,0,0,0,0,0,0,0,0,
28.32989, 11:46:19.914,0,0,0,0,0,0,0,0,0,
28.36853, 11:46:19.952,0,0,0,0,0,0,0,0,0,
28.40341, 11:46:19.987,0,0,0,0,0,0,0,0,0,
28.43699, 11:46:20.021,0,0,0,0,0,0,0,0,0,
28.47264, 11:46:20.057,0,0,0,0,0,0,0,0,0,
28.51243, 11:46:20.096,0,0,0,0,0,0,0,0,0,
28.54906, 11:46:20.132,0,0,0,0,0,0,0,0,0,
28.58355, 11:46:20.167,0,0,0,0,0,0,0,0,0,
28.61801, 11:46:20.201,0,0,0,0,0,0,0,0,0,
28.65171, 11:46:20.236,0,0,0,0,0,0,0,0,0,
28.69978, 11:46:20.283,0,0,0,0,0,0,0,0,0,
28.74047, 11:46:20.326,0,0,0,0,0,0,0,0,0,
28.78319, 11:46:20.367,0,0,0,0,0,0,0,0,0,
28.8204, 11:46:20.406,0,0,0,0,0,0,0,0,0,
28.86043, 11:46:20.445,0,0,0,0,0,0,0,0,0,
28.89807, 11:46:20.481,0,0,0,0,0,0,0,0,0,
28.93077, 11:46:20.514,0,0,0,0,0,0,0,0,0,
28.9634, 11:46:20.547,0,0,0,0,0,0,0,0,0,
29.00398, 11:46:20.587,0,0,0,0,0,0,0,0,0,
29.04455, 11:46:20.627,0,0,0,0,0,0,0,0,0,
29.08044, 11:46:20.664,0,0,0,0,0,0,0,0,0,
29.11514, 11:46:20.698,0,0,0,0,0,0,0,0,0,
29.14784, 11:46:20.732,0,0,0,0,0,0,0,0,0,
29.18154, 11:46:20.766,0,0,0,0,0,0,0,0,0,
29.22139, 11:46:20.805,0,0,0,0,0,0,0,0,0,
29.25685, 11:46:20.840,0,0,0,0,0,0,0,0,0,
29.28804, 11:46:20.872,0,0,0,0,0,0,0,0,0,
29.3246, 11:46:20.908,0,0,0,0,0,0,0,0,0,
29.363, 11:46:20.946,0,0,0,0,0,0,0,0,0,
29.4032, 11:46:20.986,0,0,0,0,0,0,0,0,0,
29.4378, 11:46:21.020,0,0,0,0,0,0,0,0,0,
29.47071, 11:46:21.054,0,0,0,0,0,0,0,0,0,
29.50306, 11:46:21.088,0,0,0,0,0,0,0,0,0,
29.53972, 11:46:21.122,0,0,0,0,0,0,0,0,0,
29.57878, 11:46:21.162,0,0,0,0,0,0,0,0,0,
29.61406, 11:46:21.197,0,0,0,0,0,0,0,0,0,
29.64815, 11:46:21.231,0,0,0,0,0,0,0,0,0,
29.68217, 11:46:21.266,0,0,0,0,0,0,0,0,0,
29.71495, 11:46:21.298,0,0,0,0,0,0,0,0,0,
29.75586, 11:46:21.339,0,0,0,0,0,0,0,0,0,
29.79193, 11:46:21.376,0,0,0,0,0,0,0,0,0,
29.82636, 11:46:21.411,0,0,0,0,0,0,0,0,0,
29.87023, 11:46:21.455,0,0,0,0,0,0,0,0,0,
29.9177, 11:46:21.502,0,0,0,0,0,0,0,0,0,
29.96571, 11:46:21.550,0,0,0,0,0,0,0,0,0,
30.00245, 11:46:21.586,0,0,0,0,0,0,0,0,0,
30.03527, 11:46:21.618,0,0,0,0,0,0,0,0,0,
30.07256, 11:46:21.656,0,0,0,0,0,0,0,0,0,
30.10763, 11:46:21.691,0,0,0,0,0,0,0,0,0,
30.14225, 11:46:21.727,0,0,0,0,0,0,0,0,0,
30.18062, 11:46:21.764,0,0,0,0,0,0,0,0,0,
30.21415, 11:46:21.797,0,0,0,0,0,0,0,0,0,
30.25097, 11:46:21.835,0,0,0,0,0,0,0,0,0,
30.28691, 11:46:21.871,0,0,0,0,0,0,0,0,0,
30.32275, 11:46:21.906,0,0,0,0,0,0,0,0,0,
30.35876, 11:46:21.941,0,0,0,0,0,0,0,0,0,
30.39281, 11:46:21.976,0,0,0,0,0,0,0,0,0,
30.43347, 11:46:22.016,0,0,0,0,0,0,0,0,0,
30.46968, 11:46:22.053,0,0,0,0,0,0,0,0,0,
30.50152, 11:46:22.086,0,0,0,0,0,0,0,0,0,
30.5362, 11:46:22.119,0,0,0,0,0,0,0,0,0,
30.56987, 11:46:22.154,0,0,0,0,0,0,0,0,0,
30.61111, 11:46:22.195,0,0,0,0,0,0,0,0,0,
30.64734, 11:46:22.231,0,0,0,0,0,0,0,0,0,
30.68142, 11:46:22.265,0,0,0,0,0,0,0,0,0,
30.72136, 11:46:22.305,0,0,0,0,0,0,0,0,0,
30.76023, 11:46:22.343,0,0,0,0,0,0,0,0,0,
30.79789, 11:46:22.381,0,0,0,0,0,0,0,0,0,
30.83255, 11:46:22.416,0,0,0,0,0,0,0,0,0,
30.86663, 11:46:22.450,0,0,0,0,0,0,0,0,0,
30.90073, 11:46:22.484,0,0,0,0,0,0,0,0,0,
30.94097, 11:46:22.524,0,0,0,0,0,0,0,0,0,
30.97748, 11:46:22.560,0,0,0,0,0,0,0,0,0,
31.01124, 11:46:22.595,0,0,0,0,0,0,0,0,0,
31.05393, 11:46:22.638,0,0,0,0,0,0,0,0,0,
31.11039, 11:46:22.694,0,0,0,0,0,0,0,0,0,
31.14925, 11:46:22.732,0,0,0,0,0,0,0,0,0,
31.18321, 11:46:22.766,0,0,0,0,0,0,0,0,0,
31.21757, 11:46:22.800,0,0,0,0,0,0,0,0,0,
31.26453, 11:46:22.849,0,0,0,0,0,0,0,0,0,
31.30215, 11:46:22.886,0,0,0,0,0,0,0,0,0,
31.3355, 11:46:22.919,0,0,0,0,0,0,0,0,0,
31.37177, 11:46:22.956,0,0,0,0,0,0,0,0,0,
31.41246, 11:46:22.996,0,0,0,0,0,0,0,0,0,
31.44995, 11:46:23.034,0,0,0,0,0,0,0,0,0,
31.48629, 11:46:23.070,0,0,0,0,0,0,0,0,0,
31.51833, 11:46:23.102,0,0,0,0,0,0,0,0,0,
31.55203, 11:46:23.135,0,0,0,0,0,0,0,0,0,
31.59997, 11:46:23.183,0,0,0,0,0,0,0,0,0,
31.63729, 11:46:23.221,0,0,0,0,0,0,0,0,0,
31.67165, 11:46:23.255,0,0,0,0,0,0,0,0,0,
31.70844, 11:46:23.293,0,0,0,0,0,0,0,0,0,
31.75317, 11:46:23.337,0,0,0,0,0,0,0,0,0,
31.7932, 11:46:23.377,0,0,0,0,0,0,0,0,0,
31.82523, 11:46:23.410,0,0,0,0,0,0,0,0,0,
31.86091, 11:46:23.444,0,0,0,0,0,0,0,0,0,
31.90038, 11:46:23.483,0,0,0,0,0,0,0,0,0,
31.93906, 11:46:23.521,0,0,0,0,0,0,0,0,0,
31.97247, 11:46:23.556,0,0,0,0,0,0,0,0,0,
32.00664, 11:46:23.590,0,0,0,0,0,0,0,0,0,
32.04141, 11:46:23.625,0,0,0,0,0,0,0,0,0,
32.08319, 11:46:23.667,0,0,0,0,0,0,0,0,0,
32.12057, 11:46:23.705,0,0,0,0,0,0,0,0,0,
32.15852, 11:46:23.742,0,0,0,0,0,0,0,0,0,
32.19553, 11:46:23.780,0,0,0,0,0,0,0,0,0,
32.24326, 11:46:23.828,0,0,0,0,0,0,0,0,0,
32.28283, 11:46:23.866,0,0,0,0,0,0,0,0,0,
32.31775, 11:46:23.900,0,0,0,0,0,0,0,0,0,
32.35274, 11:46:23.936,0,0,0,0,0,0,0,0,0,
32.39425, 11:46:23.977,0,0,0,0,0,0,0,0,0,
32.43034, 11:46:24.014,0,0,0,0,0,0,0,0,0,
32.46521, 11:46:24.050,0,0,0,0,0,0,0,0,0,
32.50507, 11:46:24.089,0,0,0,0,0,0,0,0,0,
32.54522, 11:46:24.129,0,0,0,0,0,0,0,0,0,
32.58266, 11:46:24.166,0,0,0,0,0,0,0,0,0,
32.61806, 11:46:24.201,0,0,0,0,0,0,0,0,0,
32.65128, 11:46:24.235,0,0,0,0,0,0,0,0,0,
32.68533, 11:46:24.269,0,0,0,0,0,0,0,0,0,
32.72672, 11:46:24.310,0,0,0,0,0,0,0,0,0,
32.76736, 11:46:24.351,0,0,0,0,0,0,0,0,0,
32.80346, 11:46:24.387,0,0,0,0,0,0,0,0,0,
32.84483, 11:46:24.429,0,0,0,0,0,0,0,0,0,
32.89014, 11:46:24.474,0,0,0,0,0,0,0,0,0,
32.92945, 11:46:24.513,0,0,0,0,0,0,0,0,0,
32.96593, 11:46:24.550,0,0,0,0,0,0,0,0,0,
33.00226, 11:46:24.587,0,0,0,0,0,0,0,0,0,
33.04525, 11:46:24.629,0,0,0,0,0,0,0,0,0,
33.08858, 11:46:24.673,0,0,0,0,0,0,0,0,0,
33.12519, 11:46:24.708,0,0,0,0,0,0,0,0,0,
33.16122, 11:46:24.745,0,0,0,0,0,0,0,0,0,
33.20628, 11:46:24.790,0,0,0,0,0,0,0,0,0,
33.24686, 11:46:24.830,0,0,0,0,0,0,0,0,0,
33.28559, 11:46:24.870,0,0,0,0,0,0,0,0,0,
33.32548, 11:46:24.910,0,0,0,0,0,0,0,0,0,
33.37228, 11:46:24.957,0,0,0,0,0,0,0,0,0,
33.44056, 11:46:25.026,0,0,0,0,0,0,0,0,0,
33.47804, 11:46:25.061,0,0,0,0,0,0,0,0,0,
33.52584, 11:46:25.109,0,0,0,0,0,0,0,0,0,
33.56531, 11:46:25.149,0,0,0,0,0,0,0,0,0,
33.60416, 11:46:25.188,0,0,0,0,0,0,0,0,0,
33.64264, 11:46:25.227,0,0,0,0,0,0,0,0,0,
33.68384, 11:46:25.268,0,0,0,0,0,0,0,0,0,
33.72472, 11:46:25.309,0,0,0,0,0,0,0,0,0,
33.76156, 11:46:25.346,0,0,0,0,0,0,0,0,0,
33.7976, 11:46:25.380,0,0,0,0,0,0,0,0,0,
33.84223, 11:46:25.427,0,0,0,0,0,0,0,0,0,
33.88606, 11:46:25.470,0,0,0,0,0,0,0,0,0,
33.9251, 11:46:25.509,0,0,0,0,0,0,0,0,0,
33.9605, 11:46:25.544,0,0,0,0,0,0,0,0,0,
34.00194, 11:46:25.585,0,0,0,0,0,0,0,0,0,
34.03828, 11:46:25.621,0,0,0,0,0,0,0,0,0,
34.07143, 11:46:25.656,0,0,0,0,0,0,0,0,0,
34.10921, 11:46:25.694,0,0,0,0,0,0,0,0,0,
34.14928, 11:46:25.733,0,0,0,0,0,0,0,0,0,
34.18906, 11:46:25.773,0,0,0,0,0,0,0,0,0,
34.22554, 11:46:25.810,0,0,0,0,0,0,0,0,0,
34.25943, 11:46:25.843,0,0,0,0,0,0,0,0,0,
34.29375, 11:46:25.878,0,0,0,0,0,0,0,0,0,
34.33316, 11:46:25.918,0,0,0,0,0,0,0,0,0,
34.37971, 11:46:25.963,0,0,0,0,0,0,0,0,0,
34.41778, 11:46:26.001,0,0,0,0,0,0,0,0,0,
34.45412, 11:46:26.038,0,0,0,0,0,0,0,0,0,
34.4956, 11:46:26.080,0,0,0,0,0,0,0,0,0,
34.54031, 11:46:26.127,0,0,0,0,0,0,0,0,0,
34.59803, 11:46:26.182,0,0,0,0,0,0,0,0,0,
34.63585, 11:46:26.221,0,0,0,0,0,0,0,0,0,
34.6711, 11:46:26.255,0,0,0,0,0,0,0,0,0,
34.7095, 11:46:26.292,0,0,0,0,0,0,0,0,0,
34.74616, 11:46:26.329,0,0,0,0,0,0,0,0,0,
34.78333, 11:46:26.367,0,0,0,0,0,0,0,0,0,
34.81704, 11:46:26.400,0,0,0,0,0,0,0,0,0,
34.85009, 11:46:26.433,0,0,0,0,0,0,0,0,0,
34.89329, 11:46:26.477,0,0,0,0,0,0,0,0,0,
34.92962, 11:46:26.513,0,0,0,0,0,0,0,0,0,
34.96418, 11:46:26.549,0,0,0,0,0,0,0,0,0,
34.9992, 11:46:26.582,0,0,0,0,0,0,0,0,0,
35.03206, 11:46:26.617,0,0,0,0,0,0,0,0,0,
35.07153, 11:46:26.655,0,0,0,0,0,0,0,0,0,
35.10872, 11:46:26.692,0,0,0,0,0,0,0,0,0,
35.14417, 11:46:26.728,0,0,0,0,0,0,0,0,0,
35.17877, 11:46:26.761,0,0,0,0,0,0,0,0,0,
35.22182, 11:46:26.806,0,0,0,0,0,0,0,0,0,
35.26147, 11:46:26.846,0,0,0,0,0,0,0,0,0,
35.29759, 11:46:26.881,0,0,0,0,0,0,0,0,0,
35.33038, 11:46:26.914,0,0,0,0,0,0,0,0,0,
35.36764, 11:46:26.951,0,0,0,0,0,0,0,0,0,
35.40288, 11:46:26.987,0,0,0,0,0,0,0,0,0,
35.44377, 11:46:27.026,0,0,0,0,0,0,0,0,0,
35.47975, 11:46:27.062,0,0,0,0,0,0,0,0,0,
35.51511, 11:46:27.099,0,0,0,0,0,0,0,0,0,
35.55148, 11:46:27.136,0,0,0,0,0,0,0,0,0,
35.58622, 11:46:27.171,0,0,0,0,0,0,0,0,0,
35.62689, 11:46:27.211,0,0,0,0,0,0,0,0,0,
35.67224, 11:46:27.256,0,0,0,0,0,0,0,0,0,
35.71362, 11:46:27.298,0,0,0,0,0,0,0,0,0,
35.76009, 11:46:27.345,0,0,0,0,0,0,0,0,0,
35.80839, 11:46:27.391,0,0,0,0,0,0,0,0,0,
35.84508, 11:46:27.429,0,0,0,0,0,0,0,0,0,
35.88118, 11:46:27.465,0,0,0,0,0,0,0,0,0,
35.91748, 11:46:27.501,0,0,0,0,0,0,0,0,0,
35.9563, 11:46:27.540,0,0,0,0,0,0,0,0,0,
35.99118, 11:46:27.576,0,0,0,0,0,0,0,0,0,
36.0256, 11:46:27.610,0,0,0,0,0,0,0,0,0,
36.05969, 11:46:27.642,0,0,0,0,0,0,0,0,0,
36.10114, 11:46:27.686,0,0,0,0,0,0,0,0,0,
36.13977, 11:46:27.722,0,0,0,0,0,0,0,0,0,
36.17677, 11:46:27.760,0,0,0,0,0,0,0,0,0,
36.21169, 11:46:27.796,0,0,0,0,0,0,0,0,0,
36.24593, 11:46:27.830,0,0,0,0,0,0,0,0,0,
36.27803, 11:46:27.861,0,0,0,0,0,0,0,0,0,
36.31908, 11:46:27.903,0,0,0,0,0,0,0,0,0,
36.3575, 11:46:27.942,0,0,0,0,0,0,0,0,0,
36.39151, 11:46:27.976,0,0,0,0,0,0,0,0,0,
36.42587, 11:46:28.009,0,0,0,0,0,0,0,0,0,
36.45961, 11:46:28.042,0,0,0,0,0,0,0,0,0,
36.49883, 11:46:28.082,0,0,0,0,0,0,0,0,0,
36.53856, 11:46:28.123,0,0,0,0,0,0,0,0,0,
36.57671, 11:46:28.160,0,0,0,0,0,0,0,0,0,
36.61575, 11:46:28.201,0,0,0,0,0,0,0,0,0,
36.6568, 11:46:28.241,0,0,0,0,0,0,0,0,0,
36.6969, 11:46:28.282,0,0,0,0,0,0,0,0,0,
36.73288, 11:46:28.317,0,0,0,0,0,0,0,0,0,
36.76891, 11:46:28.352,0,0,0,0,0,0,0,0,0,
36.81122, 11:46:28.395,0,0,0,0,0,0,0,0,0,
36.8603, 11:46:28.446,0,0,0,0,0,0,0,0,0,
36.90802, 11:46:28.493,0,0,0,0,0,0,0,0,0,
36.94651, 11:46:28.531,0,0,0,0,0,0,0,0,0,
36.9929, 11:46:28.577,0,0,0,0,0,0,0,0,0,
37.05116, 11:46:28.637,0,0,0,0,0,0,0,0,0,
37.09073, 11:46:28.674,0,0,0,0,0,0,0,0,0,
37.124, 11:46:28.708,0,0,0,0,0,0,0,0,0,
37.16598, 11:46:28.749,0,0,0,0,0,0,0,0,0,
37.21387, 11:46:28.797,0,0,0,0,0,0,0,0,0,
37.25018, 11:46:28.834,0,0,0,0,0,0,0,0,0,
37.29502, 11:46:28.880,0,0,0,0,0,0,0,0,0,
37.34494, 11:46:28.932,0,0,0,0,0,0,0,0,0,
37.38644, 11:46:28.971,0,0,0,0,0,0,0,0,0,
37.43121, 11:46:29.015,0,0,0,0,0,0,0,0,0,
37.47673, 11:46:29.061,0,0,0,0,0,0,0,0,0,
37.52319, 11:46:29.108,0,0,0,0,0,0,0,0,0,
37.56408, 11:46:29.148,0,0,0,0,0,0,0,0,0,
37.60638, 11:46:29.191,0,0,0,0,0,0,0,0,0,
37.65417, 11:46:29.239,0,0,0,0,0,0,0,0,0,
37.70007, 11:46:29.286,0,0,0,0,0,0,0,0,0,
37.74358, 11:46:29.328,0,0,0,0,0,0,0,0,0,
37.78361, 11:46:29.368,0,0,0,0,0,0,0,0,0,
37.82909, 11:46:29.413,0,0,0,0,0,0,0,0,0,
37.87948, 11:46:29.469,0,0,0,0,0,0,0,0,0,
37.92167, 11:46:29.507,0,0,0,0,0,0,0,0,0,
37.96152, 11:46:29.546,0,0,0,0,0,0,0,0,0,
38.00704, 11:46:29.592,0,0,0,0,0,0,0,0,0,
38.05782, 11:46:29.643,0,0,0,0,0,0,0,0,0,
38.09955, 11:46:29.684,0,0,0,0,0,0,0,0,0,
38.13966, 11:46:29.725,0,0,0,0,0,0,0,0,0,
38.18414, 11:46:29.769,0,0,0,0,0,0,0,0,0,
38.23367, 11:46:29.818,0,0,0,0,0,0,0,0,0,
38.27566, 11:46:29.860,0,0,0,0,0,0,0,0,0,
38.32043, 11:46:29.906,0,0,0,0,0,0,0,0,0,
38.36182, 11:46:29.946,0,0,0,0,0,0,0,0,0,
38.41193, 11:46:29.995,0,0,0,0,0,0,0,0,0,
38.45279, 11:46:30.037,0,0,0,0,0,0,0,0,0,
38.49499, 11:46:30.079,0,0,0,0,0,0,0,0,0,
38.54222, 11:46:30.127,0,0,0,0,0,0,0,0,0,
38.5891, 11:46:30.174,0,0,0,0,0,0,0,0,0,
38.63166, 11:46:30.217,0,0,0,0,0,0,0,0,0,
38.67317, 11:46:30.258,0,0,0,0,0,0,0,0,0,
38.71847, 11:46:30.304,0,0,0,0,0,0,0,0,0,
38.7704, 11:46:30.356,0,0,0,0,0,0,0,0,0,
38.81014, 11:46:30.394,0,0,0,0,0,0,0,0,0,
38.85059, 11:46:30.435,0,0,0,0,0,0,0,0,0,
38.89546, 11:46:30.480,0,0,0,0,0,0,0,0,0,
38.94469, 11:46:30.529,0,0,0,0,0,0,0,0,0,
38.98952, 11:46:30.574,0,0,0,0,0,0,0,0,0,
39.02859, 11:46:30.612,0,0,0,0,0,0,0,0,0,
39.07318, 11:46:30.657,0,0,0,0,0,0,0,0,0,
39.12398, 11:46:30.710,0,0,0,0,0,0,0,0,0,
39.1655, 11:46:30.751,0,0,0,0,0,0,0,0,0,
39.20956, 11:46:30.795,0,0,0,0,0,0,0,0,0,
39.25066, 11:46:30.836,0,0,0,0,0,0,0,0,0,
39.30055, 11:46:30.884,0,0,0,0,0,0,0,0,0,
39.34377, 11:46:30.928,0,0,0,0,0,0,0,0,0,
39.38439, 11:46:30.969,0,0,0,0,0,0,0,0,0,
39.43201, 11:46:31.016,0,0,0,0,0,0,0,0,0,
39.47857, 11:46:31.062,0,0,0,0,0,0,0,0,0,
39.52029, 11:46:31.105,0,0,0,0,0,0,0,0,0,
39.56249, 11:46:31.146,0,0,0,0,0,0,0,0,0,
39.60723, 11:46:31.192,0,0,0,0,0,0,0,0,0,
39.65775, 11:46:31.242,0,0,0,0,0,0,0,0,0,
39.69805, 11:46:31.282,0,0,0,0,0,0,0,0,0,
39.73956, 11:46:31.324,0,0,0,0,0,0,0,0,0,
39.78499, 11:46:31.371,0,0,0,0,0,0,0,0,0,
39.83503, 11:46:31.419,0,0,0,0,0,0,0,0,0,
39.87884, 11:46:31.463,0,0,0,0,0,0,0,0,0,
39.9286, 11:46:31.513,0,0,0,0,0,0,0,0,0,
39.96818, 11:46:31.553,0,0,0,0,0,0,0,0,0,
40.01181, 11:46:31.595,0,0,0,0,0,0,0,0,0,
40.05346, 11:46:31.637,0,0,0,0,0,0,0,0,0,
40.09803, 11:46:31.682,0,0,0,0,0,0,0,0,0,
40.14106, 11:46:31.727,0,0,0,0,0,0,0,0,0,
40.18882, 11:46:31.774,0,0,0,0,0,0,0,0,0,
40.23255, 11:46:31.817,0,0,0,0,0,0,0,0,0,
40.27311, 11:46:31.858,0,0,0,0,0,0,0,0,0,
40.32047, 11:46:31.907,0,0,0,0,0,0,0,0,0,
40.36927, 11:46:31.954,0,0,0,0,0,0,0,0,0,
40.40951, 11:46:31.993,0,0,0,0,0,0,0,0,0,
40.45064, 11:46:32.035,0,0,0,0,0,0,0,0,0,
40.49688, 11:46:32.081,0,0,0,0,0,0,0,0,0,
40.54837, 11:46:32.133,0,0,0,0,0,0,0,0,0,
40.58804, 11:46:32.171,0,0,0,0,0,0,0,0,0,
40.62849, 11:46:32.212,0,0,0,0,0,0,0,0,0,
40.67467, 11:46:32.259,0,0,0,0,0,0,0,0,0,
40.72239, 11:46:32.308,0,0,0,0,0,0,0,0,0,
40.76654, 11:46:32.351,0,0,0,0,0,0,0,0,0,
40.80692, 11:46:32.392,0,0,0,0,0,0,0,0,0,
40.85183, 11:46:32.436,0,0,0,0,0,0,0,0,0,
40.90094, 11:46:32.486,0,0,0,0,0,0,0,0,0,
40.94568, 11:46:32.530,0,0,0,0,0,0,0,0,0,
40.98779, 11:46:32.572,0,0,0,0,0,0,0,0,0,
41.02923, 11:46:32.614,0,0,0,0,0,0,0,0,0,
41.0787, 11:46:32.663,0,0,0,0,0,0,0,0,0,
41.12172, 11:46:32.707,0,0,0,0,0,0,0,0,0,
41.16256, 11:46:32.747,0,0,0,0,0,0,0,0,0,
41.21008, 11:46:32.795,0,0,0,0,0,0,0,0,0,
41.25756, 11:46:32.842,0,0,0,0,0,0,0,0,0,
41.29823, 11:46:32.883,0,0,0,0,0,0,0,0,0,
41.34041, 11:46:32.926,0,0,0,0,0,0,0,0,0,
41.38504, 11:46:32.969,0,0,0,0,0,0,0,0,0,
41.43689, 11:46:33.021,0,0,0,0,0,0,0,0,0,
41.48148, 11:46:33.066,0,0,0,0,0,0,0,0,0,
41.51943, 11:46:33.102,0,0,0,0,0,0,0,0,0,
41.56318, 11:46:33.148,0,0,0,0,0,0,0,0,0,
41.61412, 11:46:33.197,0,0,0,0,0,0,0,0,0,
41.65528, 11:46:33.239,0,0,0,0,0,0,0,0,0,
41.69523, 11:46:33.279,0,0,0,0,0,0,0,0,0,
41.74092, 11:46:33.325,0,0,0,0,0,0,0,0,0,
41.79005, 11:46:33.378,0,0,0,0,0,0,0,0,0,
41.83247, 11:46:33.417,0,0,0,0,0,0,0,0,0,
41.8769, 11:46:33.461,0,0,0,0,0,0,0,0,0,
41.91865, 11:46:33.502,0,0,0,0,0,0,0,0,0,
41.97518, 11:46:33.560,0,0,0,0,0,0,0,0,0,
42.01445, 11:46:33.599,0,0,0,0,0,0,0,0,0,
42.05133, 11:46:33.637,0,0,0,0,0,0,0,0,0,
42.10011, 11:46:33.685,0,0,0,0,0,0,0,0,0,
42.14668, 11:46:33.731,0,0,0,0,0,0,0,0,0,
42.18702, 11:46:33.771,0,0,0,0,0,0,0,0,0,
42.22926, 11:46:33.814,0,0,0,0,0,0,0,0,0,
42.27419, 11:46:33.858,0,0,0,0,0,0,0,0,0,
42.32687, 11:46:33.913,0,0,0,0,0,0,0,0,0,
42.36552, 11:46:33.949,0,0,0,0,0,0,0,0,0,
42.40691, 11:46:33.991,0,0,0,0,0,0,0,0,0,
42.45182, 11:46:34.036,0,0,0,0,0,0,0,0,0,
42.50269, 11:46:34.088,0,0,0,0,0,0,0,0,0,
42.5446, 11:46:34.129,0,0,0,0,0,0,0,0,0,
42.58516, 11:46:34.170,0,0,0,0,0,0,0,0,0,
42.6305, 11:46:34.225,0,0,0,0,0,0,0,0,0,
42.69113, 11:46:34.277,0,0,0,0,0,0,0,0,0,
42.73621, 11:46:34.320,0,0,0,0,0,0,0,0,0,
42.77623, 11:46:34.361,0,0,0,0,0,0,0,0,0,
42.81172, 11:46:34.396,0,0,0,0,0,0,0,0,0,
42.85627, 11:46:34.440,0,0,0,0,0,0,0,0,0,
42.89851, 11:46:34.483,0,0,0,0,0,0,0,0,0,
42.94019, 11:46:34.526,0,0,0,0,0,0,0,0,0,
42.98761, 11:46:34.571,0,0,0,0,0,0,0,0,0,
43.03518, 11:46:34.619,0,0,0,0,0,0,0,0,0,
43.07725, 11:46:34.661,0,0,0,0,0,0,0,0,0,
43.11812, 11:46:34.703,0,0,0,0,0,0,0,0,0,
43.16356, 11:46:34.749,0,0,0,0,0,0,0,0,0,
43.21577, 11:46:34.800,0,0,0,0,0,0,0,0,0,
43.25659, 11:46:34.840,0,0,0,0,0,0,0,0,0,
43.29673, 11:46:34.882,0,0,0,0,0,0,0,0,0,
43.34207, 11:46:34.927,0,0,0,0,0,0,0,0,0,
43.39087, 11:46:34.975,0,0,0,0,0,0,0,0,0,
43.43447, 11:46:35.019,0,0,0,0,0,0,0,0,0,
43.47435, 11:46:35.060,0,0,0,0,0,0,0,0,0,
43.51866, 11:46:35.103,0,0,0,0,0,0,0,0,0,
43.56976, 11:46:35.155,0,0,0,0,0,0,0,0,0,
43.61025, 11:46:35.194,0,0,0,0,0,0,0,0,0,
43.65483, 11:46:35.238,0,0,0,0,0,0,0,0,0,
43.69672, 11:46:35.281,0,0,0,0,0,0,0,0,0,
43.74618, 11:46:35.331,0,0,0,0,0,0,0,0,0,
43.78792, 11:46:35.373,0,0,0,0,0,0,0,0,0,
43.85422, 11:46:35.441,0,0,0,0,0,0,0,0,0,
43.91514, 11:46:35.500,0,0,0,0,0,0,0,0,0,
43.95373, 11:46:35.537,0,0,0,0,0,0,0,0,0,
43.98714, 11:46:35.570,0,0,0,0,0,0,0,0,0,
44.02415, 11:46:35.608,0,0,0,0,0,0,0,0,0,
44.06831, 11:46:35.652,0,0,0,0,0,0,0,0,0,
44.10928, 11:46:35.694,0,0,0,0,0,0,0,0,0,
44.15026, 11:46:35.735,0,0,0,0,0,0,0,0,0,
44.19312, 11:46:35.776,0,0,0,0,0,0,0,0,0,
44.2429, 11:46:35.827,0,0,0,0,0,0,0,0,0,
44.2842, 11:46:35.869,0,0,0,0,0,0,0,0,0,
44.33135, 11:46:35.916,0,0,0,0,0,0,0,0,0,
44.37224, 11:46:35.957,0,0,0,0,0,0,0,0,0,
44.42048, 11:46:36.006,0,0,0,0,0,0,0,0,0,
44.46316, 11:46:36.047,0,0,0,0,0,0,0,0,0,
44.50562, 11:46:36.090,0,0,0,0,0,0,0,0,0,
44.55209, 11:46:36.135,0,0,0,0,0,0,0,0,0,
44.59937, 11:46:36.183,0,0,0,0,0,0,0,0,0,
44.64152, 11:46:36.225,0,0,0,0,0,0,0,0,0,
44.68327, 11:46:36.267,0,0,0,0,0,0,0,0,0,
44.72699, 11:46:36.311,0,0,0,0,0,0,0,0,0,
44.77734, 11:46:36.362,0,0,0,0,0,0,0,0,0,
44.81924, 11:46:36.403,0,0,0,0,0,0,0,0,0,
44.86108, 11:46:36.448,0,0,0,0,0,0,0,0,0,
44.90665, 11:46:36.491,0,0,0,0,0,0,0,0,0,
44.95366, 11:46:36.538,0,0,0,0,0,0,0,0,0,
45.00048, 11:46:36.587,0,0,0,0,0,0,0,0,0,
45.04417, 11:46:36.630,0,0,0,0,0,0,0,0,0,
45.08872, 11:46:36.673,0,0,0,0,0,0,0,0,0,
45.13247, 11:46:36.715,0,0,0,0,0,0,0,0,0,
45.17614, 11:46:36.759,0,0,0,0,0,0,0,0,0,
45.21967, 11:46:36.803,0,0,0,0,0,0,0,0,0,
45.25967, 11:46:36.843,0,0,0,0,0,0,0,0,0,
45.30987, 11:46:36.896,0,0,0,0,0,0,0,0,0,
45.35412, 11:46:36.939,0,0,0,0,0,0,0,0,0,
45.39431, 11:46:36.979,0,0,0,0,0,0,0,0,0,
45.43967, 11:46:37.025,0,0,0,0,0,0,0,0,0,
45.48928, 11:46:37.075,0,0,0,0,0,0,0,0,0,
45.52997, 11:46:37.115,0,0,0,0,0,0,0,0,0,
45.57236, 11:46:37.156,0,0,0,0,0,0,0,0,0,
45.61686, 11:46:37.201,0,0,0,0,0,0,0,0,0,
45.6673, 11:46:37.252,0,0,0,0,0,0,0,0,0,
45.70763, 11:46:37.292,0,0,0,0,0,0,0,0,0,
45.75031, 11:46:37.335,0,0,0,0,0,0,0,0,0,
45.79411, 11:46:37.377,0,0,0,0,0,0,0,0,0,
45.84378, 11:46:37.429,0,0,0,0,0,0,0,0,0,
45.88812, 11:46:37.472,0,0,0,0,0,0,0,0,0,
45.92951, 11:46:37.514,0,0,0,0,0,0,0,0,0,
45.97048, 11:46:37.555,0,0,0,0,0,0,0,0,0,
46.02074, 11:46:37.606,0,0,0,0,0,0,0,0,0,
46.06353, 11:46:37.648,0,0,0,0,0,0,0,0,0,
46.10776, 11:46:37.692,0,0,0,0,0,0,0,0,0,
46.1525, 11:46:37.736,0,0,0,0,0,0,0,0,0,
46.20375, 11:46:37.790,0,0,0,0,0,0,0,0,0,
46.24611, 11:46:37.830,0,0,0,0,0,0,0,0,0,
46.28553, 11:46:37.870,0,0,0,0,0,0,0,0,0,
46.33022, 11:46:37.915,0,0,0,0,0,0,0,0,0,
46.37705, 11:46:37.961,0,0,0,0,0,0,0,0,0,
46.41838, 11:46:38.002,0,0,0,0,0,0,0,0,0,
46.46066, 11:46:38.047,0,0,0,0,0,0,0,0,0,
46.50515, 11:46:38.089,0,0,0,0,0,0,0,0,0,
46.55671, 11:46:38.140,0,0,0,0,0,0,0,0,0,
46.59828, 11:46:38.181,0,0,0,0,0,0,0,0,0,
46.6405, 11:46:38.225,0,0,0,0,0,0,0,0,0,
46.68276, 11:46:38.267,0,0,0,0,0,0,0,0,0,
46.73217, 11:46:38.316,0,0,0,0,0,0,0,0,0,
46.77789, 11:46:38.362,0,0,0,0,0,0,0,0,0,
46.81717, 11:46:38.401,0,0,0,0,0,0,0,0,0,
46.86002, 11:46:38.444,0,0,0,0,0,0,0,0,0,
46.91068, 11:46:38.494,0,0,0,0,0,0,0,0,0,
46.95185, 11:46:38.536,0,0,0,0,0,0,0,0,0,
46.99841, 11:46:38.582,0,0,0,0,0,0,0,0,0,
47.03828, 11:46:38.622,0,0,0,0,0,0,0,0,0,
47.0887, 11:46:38.673,0,0,0,0,0,0,0,0,0,
47.13251, 11:46:38.716,0,0,0,0,0,0,0,0,0,
47.17414, 11:46:38.758,0,0,0,0,0,0,0,0,0,
47.21874, 11:46:38.803,0,0,0,0,0,0,0,0,0,
47.2665, 11:46:38.850,0,0,0,0,0,0,0,0,0,
47.31076, 11:46:38.895,0,0,0,0,0,0,0,0,0,
47.3676, 11:46:38.953,0,0,0,0,0,0,0,0,0,
47.40552, 11:46:38.990,0,0,0,0,0,0,0,0,0,
47.44884, 11:46:39.032,0,0,0,0,0,0,0,0,0,
47.48328, 11:46:39.067,0,0,0,0,0,0,0,0,0,
47.52252, 11:46:39.107,0,0,0,0,0,0,0,0,0,
47.56634, 11:46:39.150,0,0,0,0,0,0,0,0,0,
47.61341, 11:46:39.198,0,0,0,0,0,0,0,0,0,
47.65775, 11:46:39.242,0,0,0,0,0,0,0,0,0,
47.70008, 11:46:39.285,0,0,0,0,0,0,0,0,0,
47.74478, 11:46:39.329,0,0,0,0,0,0,0,0,0,
47.79675, 11:46:39.380,0,0,0,0,0,0,0,0,0,
47.83647, 11:46:39.421,0,0,0,0,0,0,0,0,0,
47.88066, 11:46:39.465,0,0,0,0,0,0,0,0,0,
47.92341, 11:46:39.507,0,0,0,0,0,0,0,0,0,
47.97068, 11:46:39.555,0,0,0,0,0,0,0,0,0,
48.01435, 11:46:39.597,0,0,0,0,0,0,0,0,0,
48.05568, 11:46:39.639,0,0,0,0,0,0,0,0,0,
48.09983, 11:46:39.683,0,0,0,0,0,0,0,0,0,
48.1761, 11:46:39.764,0,0,0,0,0,0,0,0,0,
48.25059, 11:46:39.836,0,0,0,0,0,0,0,0,0,
48.29476, 11:46:39.879,0,0,0,0,0,0,0,0,0,
48.35543, 11:46:39.941,0,0,0,0,0,0,0,0,0,
48.42218, 11:46:40.008,0,0,0,0,0,0,0,0,0,
48.48462, 11:46:40.070,0,0,0,0,0,0,0,0,0,
48.54882, 11:46:40.135,0,0,0,0,0,0,0,0,0,
48.59433, 11:46:40.178,0,0,0,0,0,0,0,0,0,
48.6449, 11:46:40.230,0,0,0,0,0,0,0,0,0,
48.68413, 11:46:40.268,0,0,0,0,0,0,0,0,0,
48.7212, 11:46:40.306,0,0,0,0,0,0,0,0,0,
48.75972, 11:46:40.342,0,0,0,0,0,0,0,0,0,
48.79905, 11:46:40.382,0,0,0,0,0,0,0,0,0,
48.8351, 11:46:40.419,0,0,0,0,0,0,0,0,0,
48.8762, 11:46:40.460,0,0,0,0,0,0,0,0,0,
48.92074, 11:46:40.506,0,0,0,0,0,0,0,0,0,
48.96902, 11:46:40.553,0,0,0,0,0,0,0,0,0,
49.01495, 11:46:40.599,0,0,0,0,0,0,0,0,0,
49.05454, 11:46:40.639,0,0,0,0,0,0,0,0,0,
49.09961, 11:46:40.685,0,0,0,0,0,0,0,0,0,
49.14635, 11:46:40.731,0,0,0,0,0,0,0,0,0,
49.19024, 11:46:40.775,0,0,0,0,0,0,0,0,0,
49.23642, 11:46:40.821,0,0,0,0,0,0,0,0,0,
49.27678, 11:46:40.861,0,0,0,0,0,0,0,0,0,
49.32725, 11:46:40.913,0,0,0,0,0,0,0,0,0,
49.3702, 11:46:40.955,0,0,0,0,0,0,0,0,0,
49.40869, 11:46:40.999,0,0,0,0,0,0,0,0,0,
49.45607, 11:46:41.041,0,0,0,0,0,0,0,0,0,
49.50538, 11:46:41.090,0,0,0,0,0,0,0,0,0,
49.5485, 11:46:41.132,0,0,0,0,0,0,0,0,0,
Elapsed_Time, System_Time, Euler_Roll, Euler_Pitch, Euler_Yaw, Gyro_Roll, Gyro_Pitch, Gyro_Yaw, Accel_x, Accel_y, Accel_z
0.02, 11:46:58.882,0,0,0,0,0,0,0,0,0,
0.04, 11:46:59.035,0,0,0,0,0,0,0,0,0,
0.3733333, 11:46:59.780,0,0,0,0,0,0,0,0,0,
0.4691718, 11:46:59.864,0,0,0,0,0,0,0,0,0,
0.5359805, 11:46:59.925,0,0,0,0,0,0,0,0,0,
0.5985795, 11:46:59.989,0,0,0,0,0,0,0,0,0,
0.6636569, 11:47:00.055,0,0,0,0,0,0,0,0,0,
0.7139456, 11:47:00.103,0,0,0,0,0,0,0,0,0,
0.7832789, 11:47:00.174,0,0,0,0,0,0,0,0,0,
0.8283218, 11:47:00.217,0,0,0,0,0,0,0,0,0,
0.8620117, 11:47:00.251,0,0,0,0,0,0,0,0,0,
0.9076646, 11:47:00.295,0,0,0,0,0,0,0,0,0,
0.9531835, 11:47:00.342,0,0,0,0,0,0,0,0,0,
0.9904239, 11:47:00.379,0,0,0,0,0,0,0,0,0,
1.026552, 11:47:00.415,0,0,0,0,0,0,0,0,0,
1.070113, 11:47:00.459,0,0,0,0,0,0,0,0,0,
1.119273, 11:47:00.508,0,0,0,0,0,0,0,0,0,
1.164655, 11:47:00.555,0,0,0,0,0,0,0,0,0,
1.201521, 11:47:00.591,0,0,0,0,0,0,0,0,0,
1.239674, 11:47:00.628,0,0,0,0,0,0,0,0,0,
1.290041, 11:47:00.679,0,0,0,0,0,0,0,0,0,
1.329766, 11:47:00.718,0,0,0,0,0,0,0,0,0,
1.362762, 11:47:00.751,0,0,0,0,0,0,0,0,0,
1.403578, 11:47:00.792,0,0,0,0,0,0,0,0,0,
1.450871, 11:47:00.840,0,0,0,0,0,0,0,0,0,
1.487463, 11:47:00.876,0,0,0,0,0,0,0,0,0,
1.587119, 11:47:00.979,0,0,0,0,0,0,0,0,0,
1.637016, 11:47:01.025,0,0,0,0,0,0,0,0,0,
1.674846, 11:47:01.129,0,0,0,0,0,0,0,0,0,
1.775346, 11:47:01.167,0,0,0,0,0,0,0,0,0,
1.879264, 11:47:01.272,0,0,0,0,0,0,0,0,0,
2.063287, 11:47:01.460,0,0,0,0,0,0,0,0,0,
2.120277, 11:47:01.510,0,0,0,0,0,0,0,0,0,
2.167406, 11:47:01.556,0,0,0,0,0,0,0,0,0,
2.201036, 11:47:01.590,0,0,0,0,0,0,0,0,0,
2.236581, 11:47:01.625,0,0,0,0,0,0,0,0,0,
2.284601, 11:47:01.675,0,0,0,0,0,0,0,0,0,
2.323207, 11:47:01.713,0,0,0,0,0,0,0,0,0,
2.360875, 11:47:01.751,0,0,0,0,0,0,0,0,0,
2.396208, 11:47:01.784,0,0,0,0,0,0,0,0,0,
2.446423, 11:47:01.836,0,0,0,0,0,0,0,0,0,
2.486401, 11:47:01.876,0,0,0,0,0,0,0,0,0,
2.52334, 11:47:01.912,0,0,0,0,0,0,0,0,0,
2.561971, 11:47:01.952,0,0,0,0,0,0,0,0,0,
2.615419, 11:47:02.005,0,0,0,0,0,0,0,0,0,
2.653511, 11:47:02.043,0,0,0,0,0,0,0,0,0,
2.68774, 11:47:02.077,0,0,0,0,0,0,0,0,0,
2.721177, 11:47:02.111,0,0,0,0,0,0,0,0,0,
2.776009, 11:47:02.165,0,0,0,0,0,0,0,0,0,
2.822288, 11:47:02.212,0,0,0,0,0,0,0,0,0,
2.861867, 11:47:02.251,0,0,0,0,0,0,0,0,0,
2.900504, 11:47:02.290,0,0,0,0,0,0,0,0,0,
2.95699, 11:47:02.347,0,0,0,0,0,0,0,0,0,
3.000006, 11:47:02.391,0,0,0,0,0,0,0,0,0,
3.057267, 11:47:02.448,0,0,0,0,0,0,0,0,0,
3.114321, 11:47:02.503,0,0,0,0,0,0,0,0,0,
3.157773, 11:47:02.546,0,0,0,0,0,0,0,0,0,
3.194993, 11:47:02.585,0,0,0,0,0,0,0,0,0,
3.234461, 11:47:02.623,0,0,0,0,0,0,0,0,0,
3.285974, 11:47:02.675,0,0,0,0,0,0,0,0,0,
3.322422, 11:47:02.711,0,0,0,0,0,0,0,0,0,
3.35472, 11:47:02.750,0,0,0,0,0,0,0,0,0,
3.396245, 11:47:02.785,0,0,0,0,0,0,0,0,0,
3.446635, 11:47:02.837,0,0,0,0,0,0,0,0,0,
3.485928, 11:47:02.875,0,0,0,0,0,0,0,0,0,
3.51971, 11:47:02.908,0,0,0,0,0,0,0,0,0,
3.556281, 11:47:02.946,0,0,0,0,0,0,0,0,0,
3.615036, 11:47:03.005,0,0,0,0,0,0,0,0,0,
3.658934, 11:47:03.048,0,0,0,0,0,0,0,0,0,
3.698202, 11:47:03.094,0,0,0,0,0,0,0,0,0,
3.744901, 11:47:03.135,0,0,0,0,0,0,0,0,0,
3.799827, 11:47:03.189,0,0,0,0,0,0,0,0,0,
3.840618, 11:47:03.230,0,0,0,0,0,0,0,0,0,
3.880611, 11:47:03.270,0,0,0,0,0,0,0,0,0,
3.92003, 11:47:03.309,0,0,0,0,0,0,0,0,0,
3.97482, 11:47:03.366,0,0,0,0,0,0,0,0,0,
4.021417, 11:47:03.412,0,0,0,0,0,0,0,0,0,
4.066131, 11:47:03.458,0,0,0,0,0,0,0,0,0,
4.109376, 11:47:03.500,0,0,0,0,0,0,0,0,0,
4.177092, 11:47:03.566,0,0,0,0,0,0,0,0,0,
4.230018, 11:47:03.621,0,0,0,0,0,0,0,0,0,
4.276453, 11:47:03.665,0,0,0,0,0,0,0,0,0,
4.334368, 11:47:03.725,0,0,0,0,0,0,0,0,0,
4.376654, 11:47:03.764,0,0,0,0,0,0,0,0,0,
4.410476, 11:47:03.799,0,0,0,0,0,0,0,0,0,
4.444345, 11:47:03.832,0,0,0,0,0,0,0,0,0,
4.496621, 11:47:03.885,0,0,0,0,0,0,0,0,0,
4.538598, 11:47:03.928,0,0,0,0,0,0,0,0,0,
4.576697, 11:47:03.966,0,0,0,0,0,0,0,0,0,
4.611849, 11:47:04.000,0,0,0,0,0,0,0,0,0,
4.663774, 11:47:04.053,0,0,0,0,0,0,0,0,0,
4.701062, 11:47:04.089,0,0,0,0,0,0,0,0,0,
4.737367, 11:47:04.126,0,0,0,0,0,0,0,0,0,
4.770525, 11:47:04.160,0,0,0,0,0,0,0,0,0,
4.823506, 11:47:04.214,0,0,0,0,0,0,0,0,0,
4.862061, 11:47:04.252,0,0,0,0,0,0,0,0,0,
4.895458, 11:47:04.283,0,0,0,0,0,0,0,0,0,
4.93015, 11:47:04.319,0,0,0,0,0,0,0,0,0,
4.980945, 11:47:04.371,0,0,0,0,0,0,0,0,0,
5.024736, 11:47:04.413,0,0,0,0,0,0,0,0,0,
5.060594, 11:47:04.449,0,0,0,0,0,0,0,0,0,
5.097046, 11:47:04.485,0,0,0,0,0,0,0,0,0,
5.144018, 11:47:04.533,0,0,0,0,0,0,0,0,0,
5.183328, 11:47:04.572,0,0,0,0,0,0,0,0,0,
5.220891, 11:47:04.610,0,0,0,0,0,0,0,0,0,
5.257117, 11:47:04.645,0,0,0,0,0,0,0,0,0,
5.315825, 11:47:04.707,0,0,0,0,0,0,0,0,0,
5.359738, 11:47:04.750,0,0,0,0,0,0,0,0,0,
5.412923, 11:47:04.803,0,0,0,0,0,0,0,0,0,
5.468319, 11:47:04.859,0,0,0,0,0,0,0,0,0,
5.506734, 11:47:04.895,0,0,0,0,0,0,0,0,0,
5.543019, 11:47:04.932,0,0,0,0,0,0,0,0,0,
5.578909, 11:47:04.968,0,0,0,0,0,0,0,0,0,
5.631435, 11:47:05.021,0,0,0,0,0,0,0,0,0,
5.671095, 11:47:05.060,0,0,0,0,0,0,0,0,0,
5.704975, 11:47:05.093,0,0,0,0,0,0,0,0,0,
5.743123, 11:47:05.133,0,0,0,0,0,0,0,0,0,
5.799427, 11:47:05.189,0,0,0,0,0,0,0,0,0,
5.840773, 11:47:05.232,0,0,0,0,0,0,0,0,0,
5.87831, 11:47:05.268,0,0,0,0,0,0,0,0,0,
5.913002, 11:47:05.303,0,0,0,0,0,0,0,0,0,
5.964117, 11:47:05.354,0,0,0,0,0,0,0,0,0,
6.002204, 11:47:05.391,0,0,0,0,0,0,0,0,0,
6.037163, 11:47:05.425,0,0,0,0,0,0,0,0,0,
6.075898, 11:47:05.465,0,0,0,0,0,0,0,0,0,
6.124578, 11:47:05.515,0,0,0,0,0,0,0,0,0,
6.16188, 11:47:05.552,0,0,0,0,0,0,0,0,0,
6.198236, 11:47:05.587,0,0,0,0,0,0,0,0,0,
6.24121, 11:47:05.631,0,0,0,0,0,0,0,0,0,
6.299218, 11:47:05.688,0,0,0,0,0,0,0,0,0,
6.338089, 11:47:05.726,0,0,0,0,0,0,0,0,0,
6.377294, 11:47:05.766,0,0,0,0,0,0,0,0,0,
6.421115, 11:47:05.811,0,0,0,0,0,0,0,0,0,
6.479617, 11:47:05.870,0,0,0,0,0,0,0,0,0,
6.524963, 11:47:05.916,0,0,0,0,0,0,0,0,0,
6.579583, 11:47:05.969,0,0,0,0,0,0,0,0,0,
6.630245, 11:47:06.021,0,0,0,0,0,0,0,0,0,
6.666957, 11:47:06.057,0,0,0,0,0,0,0,0,0,
6.700538, 11:47:06.090,0,0,0,0,0,0,0,0,0,
6.735506, 11:47:06.124,0,0,0,0,0,0,0,0,0,
6.789541, 11:47:06.180,0,0,0,0,0,0,0,0,0,
6.826971, 11:47:06.215,0,0,0,0,0,0,0,0,0,
6.868592, 11:47:06.259,0,0,0,0,0,0,0,0,0,
6.910261, 11:47:06.300,0,0,0,0,0,0,0,0,0,
6.963719, 11:47:06.355,0,0,0,0,0,0,0,0,0,
7.011603, 11:47:06.401,0,0,0,0,0,0,0,0,0,
7.047017, 11:47:06.436,0,0,0,0,0,0,0,0,0,
7.084962, 11:47:06.473,0,0,0,0,0,0,0,0,0,
7.144029, 11:47:06.534,0,0,0,0,0,0,0,0,0,
7.187029, 11:47:06.576,0,0,0,0,0,0,0,0,0,
7.225459, 11:47:06.614,0,0,0,0,0,0,0,0,0,
7.261865, 11:47:06.650,0,0,0,0,0,0,0,0,0,
7.312867, 11:47:06.703,0,0,0,0,0,0,0,0,0,
