Elapsed_Time, System_Time, Euler_Roll, Euler_Pitch, Euler_Yaw, Gyro_Roll, Gyro_Pitch, Gyro_Yaw, Accel_x, Accel_y, Accel_z
0.02, 18:07:53.027,0,0,0,0,0,0,0,0,0,
0.04, 18:07:53.215,0,0,0,0,0,0,0,0,0,
0.3733333, 18:07:56.579,0,0,0,0,0,0,0,0,0,
0.4813671, 18:07:56.685,0,0,0,0,0,0,0,0,0,
0.5776414, 18:07:56.770,0,0,0,0,0,0,0,0,0,
0.6130203, 18:07:56.802,0,0,0,0,0,0,0,0,0,
0.7221849, 18:07:56.917,0,0,0,0,0,0,0,0,0,
0.7821974, 18:07:56.974,0,0,0,0,0,0,0,0,0,
0.8481662, 18:07:57.039,0,0,0,0,0,0,0,0,0,
0.8882012, 18:07:57.079,0,0,0,0,0,0,0,0,0,
0.9393945, 18:07:57.129,0,0,0,0,0,0,0,0,0,
0.9864968, 18:07:57.178,0,0,0,0,0,0,0,0,0,
1.026144, 18:07:57.216,0,0,0,0,0,0,0,0,0,
1.068723, 18:07:57.258,0,0,0,0,0,0,0,0,0,
1.098931, 18:07:57.287,0,0,0,0,0,0,0,0,0,
1.154955, 18:07:57.345,0,0,0,0,0,0,0,0,0,
1.186897, 18:07:57.375,0,0,0,0,0,0,0,0,0,
1.221796, 18:07:57.411,0,0,0,0,0,0,0,0,0,
1.258887, 18:07:57.448,0,0,0,0,0,0,0,0,0,
1.289288, 18:07:57.480,0,0,0,0,0,0,0,0,0,
1.364708, 18:07:57.557,0,0,0,0,0,0,0,0,0,
1.400129, 18:07:57.590,0,0,0,0,0,0,0,0,0,
1.431511, 18:07:57.619,0,0,0,0,0,0,0,0,0,
1.476571, 18:07:57.666,0,0,0,0,0,0,0,0,0,
1.516883, 18:07:57.707,0,0,0,0,0,0,0,0,0,
1.557604, 18:07:57.747,0,0,0,0,0,0,0,0,0,
1.679742, 18:07:57.878,0,0,0,0,0,0,0,0,0,
1.732423, 18:07:57.925,0,0,0,0,0,0,0,0,0,
1.805094, 18:07:58.072,0,0,0,0,0,0,0,0,0,
1.923922, 18:07:58.119,0,0,0,0,0,0,0,0,0,
2.007209, 18:07:58.200,0,0,0,0,0,0,0,0,0,
2.192253, 18:07:58.389,0,0,0,0,0,0,0,0,0,
2.238093, 18:07:58.429,0,0,0,0,0,0,0,0,0,
2.3406, 18:07:58.536,0,0,0,0,0,0,0,0,0,
2.418786, 18:07:58.609,0,0,0,0,0,0,0,0,0,
2.752119, 18:07:59.311,0,0,0,0,0,0,0,0,0,
2.80343, 18:07:59.348,0,0,0,0,0,0,0,0,0,
2.879237, 18:07:59.423,0,0,0,0,0,0,0,0,0,
2.965014, 18:07:59.511,0,0,0,0,0,0,0,0,0,
3.026722, 18:07:59.571,0,0,0,0,0,0,0,0,0,
3.063942, 18:07:59.607,0,0,0,0,0,0,0,0,0,
3.110375, 18:07:59.654,0,0,0,0,0,0,0,0,0,
3.14162, 18:07:59.685,0,0,0,0,0,0,0,0,0,
3.174477, 18:07:59.717,0,0,0,0,0,0,0,0,0,
3.208695, 18:07:59.752,0,0,0,0,0,0,0,0,0,
3.240572, 18:07:59.784,0,0,0,0,0,0,0,0,0,
3.277063, 18:07:59.819,0,0,0,0,0,0,0,0,0,
3.309218, 18:07:59.852,0,0,0,0,0,0,0,0,0,
3.343993, 18:07:59.887,0,0,0,0,0,0,0,0,0,
3.375221, 18:07:59.918,0,0,0,0,0,0,0,0,0,
3.408281, 18:07:59.951,0,0,0,0,0,0,0,0,0,
3.439623, 18:07:59.981,0,0,0,0,0,0,0,0,0,
3.472334, 18:08:00.015,0,0,0,0,0,0,0,0,0,
3.516548, 18:08:00.059,0,0,0,0,0,0,0,0,0,
3.547458, 18:08:00.091,0,0,0,0,0,0,0,0,0,
3.582052, 18:08:00.125,0,0,0,0,0,0,0,0,0,
3.61666, 18:08:00.159,0,0,0,0,0,0,0,0,0,
3.681653, 18:08:00.230,0,0,0,0,0,0,0,0,0,
3.731974, 18:08:00.275,0,0,0,0,0,0,0,0,0,
3.768682, 18:08:00.311,0,0,0,0,0,0,0,0,0,
3.806041, 18:08:00.349,0,0,0,0,0,0,0,0,0,
3.842122, 18:08:00.385,0,0,0,0,0,0,0,0,0,
3.874616, 18:08:00.416,0,0,0,0,0,0,0,0,0,
3.903725, 18:08:00.448,0,0,0,0,0,0,0,0,0,
3.936421, 18:08:00.478,0,0,0,0,0,0,0,0,0,
3.965405, 18:08:00.508,0,0,0,0,0,0,0,0,0,
3.995808, 18:08:00.538,0,0,0,0,0,0,0,0,0,
4.025435, 18:08:00.568,0,0,0,0,0,0,0,0,0,
4.057179, 18:08:00.600,0,0,0,0,0,0,0,0,0,
4.089591, 18:08:00.632,0,0,0,0,0,0,0,0,0,
4.11846, 18:08:00.659,0,0,0,0,0,0,0,0,0,
4.147798, 18:08:00.691,0,0,0,0,0,0,0,0,0,
4.181103, 18:08:00.723,0,0,0,0,0,0,0,0,0,
4.213363, 18:08:00.755,0,0,0,0,0,0,0,0,0,
4.244593, 18:08:00.788,0,0,0,0,0,0,0,0,0,
4.278146, 18:08:00.820,0,0,0,0,0,0,0,0,0,
4.309122, 18:08:00.853,0,0,0,0,0,0,0,0,0,
4.345048, 18:08:00.888,0,0,0,0,0,0,0,0,0,
4.375394, 18:08:00.918,0,0,0,0,0,0,0,0,0,
4.405396, 18:08:00.948,0,0,0,0,0,0,0,0,0,
4.435678, 18:08:00.977,0,0,0,0,0,0,0,0,0,
4.465573, 18:08:01.008,0,0,0,0,0,0,0,0,0,
4.500026, 18:08:01.042,0,0,0,0,0,0,0,0,0,
4.546635, 18:08:01.089,0,0,0,0,0,0,0,0,0,
4.580632, 18:08:01.124,0,0,0,0,0,0,0,0,0,
4.614034, 18:08:01.156,0,0,0,0,0,0,0,0,0,
4.646478, 18:08:01.189,0,0,0,0,0,0,0,0,0,
4.678069, 18:08:01.221,0,0,0,0,0,0,0,0,0,
4.710453, 18:08:01.253,0,0,0,0,0,0,0,0,0,
4.74288, 18:08:01.287,0,0,0,0,0,0,0,0,0,
4.77623, 18:08:01.318,0,0,0,0,0,0,0,0,0,
4.806253, 18:08:01.350,0,0,0,0,0,0,0,0,0,
4.844941, 18:08:01.389,0,0,0,0,0,0,0,0,0,
4.886315, 18:08:01.434,0,0,0,0,0,0,0,0,0,
4.936725, 18:08:01.480,0,0,0,0,0,0,0,0,0,
4.973988, 18:08:01.518,0,0,0,0,0,0,0,0,0,
5.008708, 18:08:01.552,0,0,0,0,0,0,0,0,0,
5.040919, 18:08:01.583,0,0,0,0,0,0,0,0,0,
5.071816, 18:08:01.614,0,0,0,0,0,0,0,0,0,
5.101564, 18:08:01.644,0,0,0,0,0,0,0,0,0,
5.136051, 18:08:01.677,0,0,0,0,0,0,0,0,0,
5.165691, 18:08:01.708,0,0,0,0,0,0,0,0,0,
5.197594, 18:08:01.739,0,0,0,0,0,0,0,0,0,
5.228485, 18:08:01.771,0,0,0,0,0,0,0,0,0,
5.259569, 18:08:01.802,0,0,0,0,0,0,0,0,0,
5.291411, 18:08:01.834,0,0,0,0,0,0,0,0,0,
5.325234, 18:08:01.868,0,0,0,0,0,0,0,0,0,
5.359056, 18:08:01.902,0,0,0,0,0,0,0,0,0,
5.389196, 18:08:01.932,0,0,0,0,0,0,0,0,0,
5.422703, 18:08:01.966,0,0,0,0,0,0,0,0,0,
5.456493, 18:08:01.999,0,0,0,0,0,0,0,0,0,
5.487881, 18:08:02.031,0,0,0,0,0,0,0,0,0,
5.528902, 18:08:02.072,0,0,0,0,0,0,0,0,0,
5.563828, 18:08:02.107,0,0,0,0,0,0,0,0,0,
5.596216, 18:08:02.139,0,0,0,0,0,0,0,0,0,
5.633656, 18:08:02.178,0,0,0,0,0,0,0,0,0,
5.667302, 18:08:02.210,0,0,0,0,0,0,0,0,0,
5.698102, 18:08:02.240,0,0,0,0,0,0,0,0,0,
5.729054, 18:08:02.273,0,0,0,0,0,0,0,0,0,
5.763635, 18:08:02.306,0,0,0,0,0,0,0,0,0,
5.796734, 18:08:02.338,0,0,0,0,0,0,0,0,0,
5.829397, 18:08:02.372,0,0,0,0,0,0,0,0,0,
5.86174, 18:08:02.404,0,0,0,0,0,0,0,0,0,
5.894377, 18:08:02.437,0,0,0,0,0,0,0,0,0,
5.927896, 18:08:02.471,0,0,0,0,0,0,0,0,0,
5.963581, 18:08:02.507,0,0,0,0,0,0,0,0,0,
6.000469, 18:08:02.545,0,0,0,0,0,0,0,0,0,
6.036708, 18:08:02.580,0,0,0,0,0,0,0,0,0,
6.080285, 18:08:02.627,0,0,0,0,0,0,0,0,0,
6.124072, 18:08:02.668,0,0,0,0,0,0,0,0,0,
6.159867, 18:08:02.701,0,0,0,0,0,0,0,0,0,
6.191251, 18:08:02.733,0,0,0,0,0,0,0,0,0,
6.225184, 18:08:02.767,0,0,0,0,0,0,0,0,0,
6.255492, 18:08:02.798,0,0,0,0,0,0,0,0,0,
6.286804, 18:08:02.829,0,0,0,0,0,0,0,0,0,
6.320736, 18:08:02.865,0,0,0,0,0,0,0,0,0,
6.355264, 18:08:02.898,0,0,0,0,0,0,0,0,0,
6.386559, 18:08:02.930,0,0,0,0,0,0,0,0,0,
6.422106, 18:08:02.964,0,0,0,0,0,0,0,0,0,
6.457552, 18:08:02.999,0,0,0,0,0,0,0,0,0,
6.48879, 18:08:03.032,0,0,0,0,0,0,0,0,0,
6.520638, 18:08:03.063,0,0,0,0,0,0,0,0,0,
6.552139, 18:08:03.094,0,0,0,0,0,0,0,0,0,
6.585336, 18:08:03.127,0,0,0,0,0,0,0,0,0,
6.616935, 18:08:03.159,0,0,0,0,0,0,0,0,0,
6.648617, 18:08:03.190,0,0,0,0,0,0,0,0,0,
6.681517, 18:08:03.224,0,0,0,0,0,0,0,0,0,
6.716477, 18:08:03.258,0,0,0,0,0,0,0,0,0,
6.749763, 18:08:03.293,0,0,0,0,0,0,0,0,0,
6.782459, 18:08:03.325,0,0,0,0,0,0,0,0,0,
6.815613, 18:08:03.357,0,0,0,0,0,0,0,0,0,
6.849515, 18:08:03.393,0,0,0,0,0,0,0,0,0,
6.884661, 18:08:03.428,0,0,0,0,0,0,0,0,0,
6.91791, 18:08:03.460,0,0,0,0,0,0,0,0,0,
6.951302, 18:08:03.495,0,0,0,0,0,0,0,0,0,
6.984864, 18:08:03.529,0,0,0,0,0,0,0,0,0,
7.017389, 18:08:03.559,0,0,0,0,0,0,0,0,0,
7.048932, 18:08:03.592,0,0,0,0,0,0,0,0,0,
7.080661, 18:08:03.624,0,0,0,0,0,0,0,0,0,
7.116398, 18:08:03.658,0,0,0,0,0,0,0,0,0,
7.147963, 18:08:03.691,0,0,0,0,0,0,0,0,0,
7.183876, 18:08:03.727,0,0,0,0,0,0,0,0,0,
7.223403, 18:08:03.767,0,0,0,0,0,0,0,0,0,
7.260388, 18:08:03.806,0,0,0,0,0,0,0,0,0,
7.309384, 18:08:03.855,0,0,0,0,0,0,0,0,0,
7.349123, 18:08:03.893,0,0,0,0,0,0,0,0,0,
7.383285, 18:08:03.925,0,0,0,0,0,0,0,0,0,
7.416336, 18:08:03.957,0,0,0,0,0,0,0,0,0,
7.446918, 18:08:03.990,0,0,0,0,0,0,0,0,0,
7.479362, 18:08:04.022,0,0,0,0,0,0,0,0,0,
7.511744, 18:08:04.055,0,0,0,0,0,0,0,0,0,
7.549178, 18:08:04.093,0,0,0,0,0,0,0,0,0,
7.58357, 18:08:04.126,0,0,0,0,0,0,0,0,0,
7.615634, 18:08:04.158,0,0,0,0,0,0,0,0,0,
7.648802, 18:08:04.193,0,0,0,0,0,0,0,0,0,
7.679824, 18:08:04.222,0,0,0,0,0,0,0,0,0,
7.712883, 18:08:04.256,0,0,0,0,0,0,0,0,0,
7.746648, 18:08:04.290,0,0,0,0,0,0,0,0,0,
7.779809, 18:08:04.322,0,0,0,0,0,0,0,0,0,
7.811319, 18:08:04.355,0,0,0,0,0,0,0,0,0,
7.846121, 18:08:04.389,0,0,0,0,0,0,0,0,0,
7.879493, 18:08:04.422,0,0,0,0,0,0,0,0,0,
7.91257, 18:08:04.457,0,0,0,0,0,0,0,0,0,
7.945882, 18:08:04.490,0,0,0,0,0,0,0,0,0,
7.981729, 18:08:04.525,0,0,0,0,0,0,0,0,0,
8.016189, 18:08:04.558,0,0,0,0,0,0,0,0,0,
8.048478, 18:08:04.591,0,0,0,0,0,0,0,0,0,
8.080276, 18:08:04.623,0,0,0,0,0,0,0,0,0,
8.112683, 18:08:04.655,0,0,0,0,0,0,0,0,0,
8.145947, 18:08:04.690,0,0,0,0,0,0,0,0,0,
8.181332, 18:08:04.725,0,0,0,0,0,0,0,0,0,
8.216798, 18:08:04.760,0,0,0,0,0,0,0,0,0,
8.248852, 18:08:04.792,0,0,0,0,0,0,0,0,0,
8.279881, 18:08:04.822,0,0,0,0,0,0,0,0,0,
8.312239, 18:08:04.856,0,0,0,0,0,0,0,0,0,
8.345735, 18:08:04.889,0,0,0,0,0,0,0,0,0,
8.382473, 18:08:04.925,0,0,0,0,0,0,0,0,0,
8.420092, 18:08:04.963,0,0,0,0,0,0,0,0,0,
8.471337, 18:08:05.016,0,0,0,0,0,0,0,0,0,
8.50835, 18:08:05.051,0,0,0,0,0,0,0,0,0,
8.543118, 18:08:05.086,0,0,0,0,0,0,0,0,0,
8.577434, 18:08:05.119,0,0,0,0,0,0,0,0,0,
8.6121, 18:08:05.155,0,0,0,0,0,0,0,0,0,
8.645643, 18:08:05.190,0,0,0,0,0,0,0,0,0,
8.678123, 18:08:05.220,0,0,0,0,0,0,0,0,0,
8.709056, 18:08:05.251,0,0,0,0,0,0,0,0,0,
8.741451, 18:08:05.283,0,0,0,0,0,0,0,0,0,
8.771813, 18:08:05.313,0,0,0,0,0,0,0,0,0,
8.80335, 18:08:05.346,0,0,0,0,0,0,0,0,0,
8.836245, 18:08:05.379,0,0,0,0,0,0,0,0,0,
8.871758, 18:08:05.415,0,0,0,0,0,0,0,0,0,
8.904002, 18:08:05.448,0,0,0,0,0,0,0,0,0,
8.93766, 18:08:05.479,0,0,0,0,0,0,0,0,0,
8.968414, 18:08:05.512,0,0,0,0,0,0,0,0,0,
9.00048, 18:08:05.544,0,0,0,0,0,0,0,0,0,
9.033419, 18:08:05.576,0,0,0,0,0,0,0,0,0,
9.0649, 18:08:05.607,0,0,0,0,0,0,0,0,0,
9.098666, 18:08:05.641,0,0,0,0,0,0,0,0,0,
9.131758, 18:08:05.675,0,0,0,0,0,0,0,0,0,
9.165782, 18:08:05.709,0,0,0,0,0,0,0,0,0,
9.199067, 18:08:05.742,0,0,0,0,0,0,0,0,0,
9.231296, 18:08:05.775,0,0,0,0,0,0,0,0,0,
9.263882, 18:08:05.808,0,0,0,0,0,0,0,0,0,
9.299039, 18:08:05.841,0,0,0,0,0,0,0,0,0,
9.351377, 18:08:05.895,0,0,0,0,0,0,0,0,0,
9.38447, 18:08:05.927,0,0,0,0,0,0,0,0,0,
9.417185, 18:08:05.959,0,0,0,0,0,0,0,0,0,
9.447948, 18:08:05.991,0,0,0,0,0,0,0,0,0,
9.483162, 18:08:06.026,0,0,0,0,0,0,0,0,0,
9.516219, 18:08:06.059,0,0,0,0,0,0,0,0,0,
9.548283, 18:08:06.092,0,0,0,0,0,0,0,0,0,
9.58869, 18:08:06.133,0,0,0,0,0,0,0,0,0,
9.634731, 18:08:06.180,0,0,0,0,0,0,0,0,0,
9.678804, 18:08:06.222,0,0,0,0,0,0,0,0,0,
9.715281, 18:08:06.258,0,0,0,0,0,0,0,0,0,
9.749919, 18:08:06.292,0,0,0,0,0,0,0,0,0,
9.786901, 18:08:06.329,0,0,0,0,0,0,0,0,0,
9.819557, 18:08:06.362,0,0,0,0,0,0,0,0,0,
9.850713, 18:08:06.393,0,0,0,0,0,0,0,0,0,
9.893088, 18:08:06.436,0,0,0,0,0,0,0,0,0,
9.927458, 18:08:06.472,0,0,0,0,0,0,0,0,0,
9.963845, 18:08:06.507,0,0,0,0,0,0,0,0,0,
9.998655, 18:08:06.540,0,0,0,0,0,0,0,0,0,
10.03122, 18:08:06.575,0,0,0,0,0,0,0,0,0,
10.07076, 18:08:06.613,0,0,0,0,0,0,0,0,0,
10.10465, 18:08:06.648,0,0,0,0,0,0,0,0,0,
10.13911, 18:08:06.682,0,0,0,0,0,0,0,0,0,
10.17024, 18:08:06.712,0,0,0,0,0,0,0,0,0,
10.20453, 18:08:06.747,0,0,0,0,0,0,0,0,0,
10.23702, 18:08:06.779,0,0,0,0,0,0,0,0,0,
10.26983, 18:08:06.813,0,0,0,0,0,0,0,0,0,
10.3031, 18:08:06.847,0,0,0,0,0,0,0,0,0,
10.33789, 18:08:06.879,0,0,0,0,0,0,0,0,0,
10.36977, 18:08:06.913,0,0,0,0,0,0,0,0,0,
10.40257, 18:08:06.946,0,0,0,0,0,0,0,0,0,
10.43711, 18:08:06.980,0,0,0,0,0,0,0,0,0,
10.47053, 18:08:07.014,0,0,0,0,0,0,0,0,0,
10.50368, 18:08:07.047,0,0,0,0,0,0,0,0,0,
10.53632, 18:08:07.079,0,0,0,0,0,0,0,0,0,
10.56696, 18:08:07.110,0,0,0,0,0,0,0,0,0,
10.61445, 18:08:07.158,0,0,0,0,0,0,0,0,0,
10.65151, 18:08:07.195,0,0,0,0,0,0,0,0,0,
10.6847, 18:08:07.228,0,0,0,0,0,0,0,0,0,
10.72044, 18:08:07.264,0,0,0,0,0,0,0,0,0,
10.75555, 18:08:07.299,0,0,0,0,0,0,0,0,0,
10.79312, 18:08:07.337,0,0,0,0,0,0,0,0,0,
10.84542, 18:08:07.391,0,0,0,0,0,0,0,0,0,
10.88437, 18:08:07.429,0,0,0,0,0,0,0,0,0,
10.92106, 18:08:07.463,0,0,0,0,0,0,0,0,0,
10.95478, 18:08:07.496,0,0,0,0,0,0,0,0,0,
10.98496, 18:08:07.527,0,0,0,0,0,0,0,0,0,
11.01853, 18:08:07.561,0,0,0,0,0,0,0,0,0,
11.05214, 18:08:07.595,0,0,0,0,0,0,0,0,0,
11.08933, 18:08:07.632,0,0,0,0,0,0,0,0,0,
11.12175, 18:08:07.665,0,0,0,0,0,0,0,0,0,
11.15366, 18:08:07.695,0,0,0,0,0,0,0,0,0,
11.18415, 18:08:07.727,0,0,0,0,0,0,0,0,0,
11.21669, 18:08:07.758,0,0,0,0,0,0,0,0,0,
11.24693, 18:08:07.790,0,0,0,0,0,0,0,0,0,
11.28004, 18:08:07.822,0,0,0,0,0,0,0,0,0,
11.31375, 18:08:07.855,0,0,0,0,0,0,0,0,0,
11.34713, 18:08:07.890,0,0,0,0,0,0,0,0,0,
11.38103, 18:08:07.924,0,0,0,0,0,0,0,0,0,
11.41364, 18:08:07.955,0,0,0,0,0,0,0,0,0,
11.4458, 18:08:07.988,0,0,0,0,0,0,0,0,0,
11.47669, 18:08:08.019,0,0,0,0,0,0,0,0,0,
11.51035, 18:08:08.054,0,0,0,0,0,0,0,0,0,
11.54563, 18:08:08.089,0,0,0,0,0,0,0,0,0,
11.58031, 18:08:08.122,0,0,0,0,0,0,0,0,0,
11.61328, 18:08:08.155,0,0,0,0,0,0,0,0,0,
11.64435, 18:08:08.187,0,0,0,0,0,0,0,0,0,
11.67742, 18:08:08.220,0,0,0,0,0,0,0,0,0,
11.71105, 18:08:08.254,0,0,0,0,0,0,0,0,0,
11.74778, 18:08:08.291,0,0,0,0,0,0,0,0,0,
11.78161, 18:08:08.325,0,0,0,0,0,0,0,0,0,
11.81532, 18:08:08.357,0,0,0,0,0,0,0,0,0,
11.84896, 18:08:08.393,0,0,0,0,0,0,0,0,0,
11.88223, 18:08:08.424,0,0,0,0,0,0,0,0,0,
11.91584, 18:08:08.457,0,0,0,0,0,0,0,0,0,
11.95338, 18:08:08.497,0,0,0,0,0,0,0,0,0,
11.99443, 18:08:08.543,0,0,0,0,0,0,0,0,0,
12.05025, 18:08:08.595,0,0,0,0,0,0,0,0,0,
12.10349, 18:08:08.650,0,0,0,0,0,0,0,0,0,
12.15134, 18:08:08.694,0,0,0,0,0,0,0,0,0,
12.20131, 18:08:08.745,0,0,0,0,0,0,0,0,0,
12.24991, 18:08:08.792,0,0,0,0,0,0,0,0,0,
12.29498, 18:08:08.837,0,0,0,0,0,0,0,0,0,
12.34192, 18:08:08.886,0,0,0,0,0,0,0,0,0,
12.38964, 18:08:08.933,0,0,0,0,0,0,0,0,0,
12.43708, 18:08:08.981,0,0,0,0,0,0,0,0,0,
12.48324, 18:08:09.029,0,0,0,0,0,0,0,0,0,
12.53601, 18:08:09.079,0,0,0,0,0,0,0,0,0,
12.58493, 18:08:09.129,0,0,0,0,0,0,0,0,0,
12.63532, 18:08:09.178,0,0,0,0,0,0,0,0,0,
12.68424, 18:08:09.228,0,0,0,0,0,0,0,0,0,
12.73453, 18:08:09.277,0,0,0,0,0,0,0,0,0,
12.7802, 18:08:09.323,0,0,0,0,0,0,0,0,0,
12.82912, 18:08:09.373,0,0,0,0,0,0,0,0,0,
12.8798, 18:08:09.422,0,0,0,0,0,0,0,0,0,
12.92829, 18:08:09.471,0,0,0,0,0,0,0,0,0,
12.97672, 18:08:09.520,0,0,0,0,0,0,0,0,0,
13.02087, 18:08:09.565,0,0,0,0,0,0,0,0,0,
13.06487, 18:08:09.608,0,0,0,0,0,0,0,0,0,
13.09921, 18:08:09.640,0,0,0,0,0,0,0,0,0,
13.13902, 18:08:09.682,0,0,0,0,0,0,0,0,0,
13.1834, 18:08:09.728,0,0,0,0,0,0,0,0,0,
13.2425, 18:08:09.787,0,0,0,0,0,0,0,0,0,
13.28419, 18:08:09.827,0,0,0,0,0,0,0,0,0,
13.32248, 18:08:09.866,0,0,0,0,0,0,0,0,0,
13.37779, 18:08:09.921,0,0,0,0,0,0,0,0,0,
13.42994, 18:08:09.973,0,0,0,0,0,0,0,0,0,
13.48468, 18:08:10.028,0,0,0,0,0,0,0,0,0,
13.54058, 18:08:10.084,0,0,0,0,0,0,0,0,0,
13.59534, 18:08:10.139,0,0,0,0,0,0,0,0,0,
13.64982, 18:08:10.194,0,0,0,0,0,0,0,0,0,
13.70477, 18:08:10.250,0,0,0,0,0,0,0,0,0,
13.75545, 18:08:10.299,0,0,0,0,0,0,0,0,0,
13.81224, 18:08:10.356,0,0,0,0,0,0,0,0,0,
13.8636, 18:08:10.407,0,0,0,0,0,0,0,0,0,
13.91555, 18:08:10.460,0,0,0,0,0,0,0,0,0,
13.96691, 18:08:10.510,0,0,0,0,0,0,0,0,0,
14.03047, 18:08:10.574,0,0,0,0,0,0,0,0,0,
14.06696, 18:08:10.612,0,0,0,0,0,0,0,0,0,
14.10559, 18:08:10.650,0,0,0,0,0,0,0,0,0,
14.14362, 18:08:10.687,0,0,0,0,0,0,0,0,0,
14.18099, 18:08:10.723,0,0,0,0,0,0,0,0,0,
14.25365, 18:08:10.798,0,0,0,0,0,0,0,0,0,
14.33373, 18:08:10.880,0,0,0,0,0,0,0,0,0,
14.42851, 18:08:10.975,0,0,0,0,0,0,0,0,0,
14.51557, 18:08:11.061,0,0,0,0,0,0,0,0,0,
14.5899, 18:08:11.134,0,0,0,0,0,0,0,0,0,
14.66616, 18:08:11.211,0,0,0,0,0,0,0,0,0,
14.74247, 18:08:11.288,0,0,0,0,0,0,0,0,0,
14.77929, 18:08:11.320,0,0,0,0,0,0,0,0,0,
14.85644, 18:08:11.403,0,0,0,0,0,0,0,0,0,
14.94074, 18:08:11.487,0,0,0,0,0,0,0,0,0,
15.01639, 18:08:11.559,0,0,0,0,0,0,0,0,0,
15.09586, 18:08:11.641,0,0,0,0,0,0,0,0,0,
15.16157, 18:08:11.707,0,0,0,0,0,0,0,0,0,
15.21259, 18:08:11.757,0,0,0,0,0,0,0,0,0,
15.25939, 18:08:11.803,0,0,0,0,0,0,0,0,0,
15.30838, 18:08:11.853,0,0,0,0,0,0,0,0,0,
15.35779, 18:08:11.900,0,0,0,0,0,0,0,0,0,
15.40974, 18:08:11.954,0,0,0,0,0,0,0,0,0,
15.47161, 18:08:12.016,0,0,0,0,0,0,0,0,0,
15.52688, 18:08:12.072,0,0,0,0,0,0,0,0,0,
15.58876, 18:08:12.135,0,0,0,0,0,0,0,0,0,
15.6604, 18:08:12.206,0,0,0,0,0,0,0,0,0,
15.72475, 18:08:12.271,0,0,0,0,0,0,0,0,0,
15.77962, 18:08:12.322,0,0,0,0,0,0,0,0,0,
15.82582, 18:08:12.369,0,0,0,0,0,0,0,0,0,
15.87738, 18:08:12.420,0,0,0,0,0,0,0,0,0,
15.91373, 18:08:12.456,0,0,0,0,0,0,0,0,0,
15.94685, 18:08:12.490,0,0,0,0,0,0,0,0,0,
15.97956, 18:08:12.521,0,0,0,0,0,0,0,0,0,
16.01203, 18:08:12.556,0,0,0,0,0,0,0,0,0,
16.04601, 18:08:12.589,0,0,0,0,0,0,0,0,0,
16.08044, 18:08:12.624,0,0,0,0,0,0,0,0,0,
16.11657, 18:08:12.658,0,0,0,0,0,0,0,0,0,
16.1713, 18:08:12.715,0,0,0,0,0,0,0,0,0,
16.22099, 18:08:12.764,0,0,0,0,0,0,0,0,0,
16.27217, 18:08:12.814,0,0,0,0,0,0,0,0,0,
16.30295, 18:08:12.846,0,0,0,0,0,0,0,0,0,
16.34293, 18:08:12.887,0,0,0,0,0,0,0,0,0,
16.38217, 18:08:12.926,0,0,0,0,0,0,0,0,0,
16.4194, 18:08:12.962,0,0,0,0,0,0,0,0,0,
16.45034, 18:08:12.992,0,0,0,0,0,0,0,0,0,
16.48367, 18:08:13.026,0,0,0,0,0,0,0,0,0,
16.51653, 18:08:13.059,0,0,0,0,0,0,0,0,0,
16.55132, 18:08:13.094,0,0,0,0,0,0,0,0,0,
16.58485, 18:08:13.128,0,0,0,0,0,0,0,0,0,
16.62312, 18:08:13.166,0,0,0,0,0,0,0,0,0,
16.65569, 18:08:13.197,0,0,0,0,0,0,0,0,0,
16.68733, 18:08:13.231,0,0,0,0,0,0,0,0,0,
16.7218, 18:08:13.265,0,0,0,0,0,0,0,0,0,
16.76247, 18:08:13.307,0,0,0,0,0,0,0,0,0,
16.81918, 18:08:13.365,0,0,0,0,0,0,0,0,0,
16.8642, 18:08:13.409,0,0,0,0,0,0,0,0,0,
16.90871, 18:08:13.452,0,0,0,0,0,0,0,0,0,
16.94326, 18:08:13.487,0,0,0,0,0,0,0,0,0,
16.9829, 18:08:13.525,0,0,0,0,0,0,0,0,0,
17.01821, 18:08:13.560,0,0,0,0,0,0,0,0,0,
17.04958, 18:08:13.592,0,0,0,0,0,0,0,0,0,
17.08211, 18:08:13.625,0,0,0,0,0,0,0,0,0,
17.11344, 18:08:13.655,0,0,0,0,0,0,0,0,0,
17.14757, 18:08:13.691,0,0,0,0,0,0,0,0,0,
17.1837, 18:08:13.726,0,0,0,0,0,0,0,0,0,
17.21428, 18:08:13.755,0,0,0,0,0,0,0,0,0,
17.24418, 18:08:13.788,0,0,0,0,0,0,0,0,0,
17.27786, 18:08:13.820,0,0,0,0,0,0,0,0,0,
17.31077, 18:08:13.853,0,0,0,0,0,0,0,0,0,
17.34383, 18:08:13.887,0,0,0,0,0,0,0,0,0,
17.37662, 18:08:13.918,0,0,0,0,0,0,0,0,0,
17.40775, 18:08:13.950,0,0,0,0,0,0,0,0,0,
17.43821, 18:08:13.981,0,0,0,0,0,0,0,0,0,
17.47082, 18:08:14.013,0,0,0,0,0,0,0,0,0,
17.50443, 18:08:14.047,0,0,0,0,0,0,0,0,0,
17.53675, 18:08:14.078,0,0,0,0,0,0,0,0,0,
17.56771, 18:08:14.111,0,0,0,0,0,0,0,0,0,
17.60024, 18:08:14.142,0,0,0,0,0,0,0,0,0,
17.63617, 18:08:14.178,0,0,0,0,0,0,0,0,0,
17.6675, 18:08:14.210,0,0,0,0,0,0,0,0,0,
17.69988, 18:08:14.241,0,0,0,0,0,0,0,0,0,
17.73015, 18:08:14.273,0,0,0,0,0,0,0,0,0,
17.76278, 18:08:14.305,0,0,0,0,0,0,0,0,0,
17.79362, 18:08:14.336,0,0,0,0,0,0,0,0,0,
17.82616, 18:08:14.368,0,0,0,0,0,0,0,0,0,
17.85855, 18:08:14.400,0,0,0,0,0,0,0,0,0,
17.89245, 18:08:14.435,0,0,0,0,0,0,0,0,0,
17.92845, 18:08:14.473,0,0,0,0,0,0,0,0,0,
17.96797, 18:08:14.511,0,0,0,0,0,0,0,0,0,
18.01084, 18:08:14.556,0,0,0,0,0,0,0,0,0,
18.05031, 18:08:14.593,0,0,0,0,0,0,0,0,0,
18.09064, 18:08:14.634,0,0,0,0,0,0,0,0,0,
18.1468, 18:08:14.689,0,0,0,0,0,0,0,0,0,
18.2092, 18:08:14.753,0,0,0,0,0,0,0,0,0,
18.26116, 18:08:14.805,0,0,0,0,0,0,0,0,0,
18.31755, 18:08:14.860,0,0,0,0,0,0,0,0,0,
18.3729, 18:08:14.917,0,0,0,0,0,0,0,0,0,
18.42377, 18:08:14.967,0,0,0,0,0,0,0,0,0,
18.4735, 18:08:15.017,0,0,0,0,0,0,0,0,0,
18.52085, 18:08:15.063,0,0,0,0,0,0,0,0,0,
18.57, 18:08:15.114,0,0,0,0,0,0,0,0,0,
18.62144, 18:08:15.166,0,0,0,0,0,0,0,0,0,
18.67725, 18:08:15.221,0,0,0,0,0,0,0,0,0,
18.7273, 18:08:15.271,0,0,0,0,0,0,0,0,0,
18.77992, 18:08:15.324,0,0,0,0,0,0,0,0,0,
18.82796, 18:08:15.372,0,0,0,0,0,0,0,0,0,
18.86085, 18:08:15.404,0,0,0,0,0,0,0,0,0,
18.895, 18:08:15.437,0,0,0,0,0,0,0,0,0,
18.96671, 18:08:15.511,0,0,0,0,0,0,0,0,0,
19.00145, 18:08:15.545,0,0,0,0,0,0,0,0,0,
19.03482, 18:08:15.578,0,0,0,0,0,0,0,0,0,
19.07177, 18:08:15.615,0,0,0,0,0,0,0,0,0,
19.10895, 18:08:15.652,0,0,0,0,0,0,0,0,0,
19.14755, 18:08:15.691,0,0,0,0,0,0,0,0,0,
19.19934, 18:08:15.745,0,0,0,0,0,0,0,0,0,
19.24215, 18:08:15.787,0,0,0,0,0,0,0,0,0,
19.27872, 18:08:15.820,0,0,0,0,0,0,0,0,0,
19.31066, 18:08:15.853,0,0,0,0,0,0,0,0,0,
19.34814, 18:08:15.891,0,0,0,0,0,0,0,0,0,
19.38341, 18:08:15.925,0,0,0,0,0,0,0,0,0,
19.4157, 18:08:15.958,0,0,0,0,0,0,0,0,0,
19.44745, 18:08:15.989,0,0,0,0,0,0,0,0,0,
19.4789, 18:08:16.020,0,0,0,0,0,0,0,0,0,
19.51055, 18:08:16.053,0,0,0,0,0,0,0,0,0,
19.54372, 18:08:16.087,0,0,0,0,0,0,0,0,0,
19.57942, 18:08:16.121,0,0,0,0,0,0,0,0,0,
19.60999, 18:08:16.153,0,0,0,0,0,0,0,0,0,
19.64383, 18:08:16.187,0,0,0,0,0,0,0,0,0,
19.6816, 18:08:16.225,0,0,0,0,0,0,0,0,0,
19.71686, 18:08:16.258,0,0,0,0,0,0,0,0,0,
19.75018, 18:08:16.293,0,0,0,0,0,0,0,0,0,
19.78754, 18:08:16.331,0,0,0,0,0,0,0,0,0,
19.82351, 18:08:16.366,0,0,0,0,0,0,0,0,0,
19.85812, 18:08:16.400,0,0,0,0,0,0,0,0,0,
19.89441, 18:08:16.437,0,0,0,0,0,0,0,0,0,
19.92914, 18:08:16.473,0,0,0,0,0,0,0,0,0,
19.9638, 18:08:16.507,0,0,0,0,0,0,0,0,0,
20.00078, 18:08:16.545,0,0,0,0,0,0,0,0,0,
20.0392, 18:08:16.582,0,0,0,0,0,0,0,0,0,
20.0715, 18:08:16.615,0,0,0,0,0,0,0,0,0,
20.11405, 18:08:16.667,0,0,0,0,0,0,0,0,0,
20.22383, 18:08:16.772,0,0,0,0,0,0,0,0,0,
20.27744, 18:08:16.820,0,0,0,0,0,0,0,0,0,
20.31383, 18:08:16.860,0,0,0,0,0,0,0,0,0,
20.36168, 18:08:16.909,0,0,0,0,0,0,0,0,0,
20.42025, 18:08:16.965,0,0,0,0,0,0,0,0,0,
20.45745, 18:08:16.999,0,0,0,0,0,0,0,0,0,
20.49504, 18:08:17.037,0,0,0,0,0,0,0,0,0,
20.53614, 18:08:17.079,0,0,0,0,0,0,0,0,0,
20.57092, 18:08:17.114,0,0,0,0,0,0,0,0,0,
20.60563, 18:08:17.148,0,0,0,0,0,0,0,0,0,
20.64309, 18:08:17.186,0,0,0,0,0,0,0,0,0,
20.69757, 18:08:17.241,0,0,0,0,0,0,0,0,0,
20.73704, 18:08:17.279,0,0,0,0,0,0,0,0,0,
20.77376, 18:08:17.317,0,0,0,0,0,0,0,0,0,
20.81253, 18:08:17.355,0,0,0,0,0,0,0,0,0,
20.84788, 18:08:17.390,0,0,0,0,0,0,0,0,0,
20.88129, 18:08:17.423,0,0,0,0,0,0,0,0,0,
20.91735, 18:08:17.460,0,0,0,0,0,0,0,0,0,
20.95569, 18:08:17.499,0,0,0,0,0,0,0,0,0,
20.99001, 18:08:17.532,0,0,0,0,0,0,0,0,0,
21.02513, 18:08:17.567,0,0,0,0,0,0,0,0,0,
21.05756, 18:08:17.599,0,0,0,0,0,0,0,0,0,
21.09123, 18:08:17.634,0,0,0,0,0,0,0,0,0,
21.12509, 18:08:17.669,0,0,0,0,0,0,0,0,0,
21.16175, 18:08:17.704,0,0,0,0,0,0,0,0,0,
21.19549, 18:08:17.736,0,0,0,0,0,0,0,0,0,
21.22797, 18:08:17.769,0,0,0,0,0,0,0,0,0,
21.26105, 18:08:17.803,0,0,0,0,0,0,0,0,0,
21.29453, 18:08:17.837,0,0,0,0,0,0,0,0,0,
21.33041, 18:08:17.873,0,0,0,0,0,0,0,0,0,
21.37473, 18:08:17.917,0,0,0,0,0,0,0,0,0,
21.40818, 18:08:17.952,0,0,0,0,0,0,0,0,0,
21.44269, 18:08:17.986,0,0,0,0,0,0,0,0,0,
21.47832, 18:08:18.020,0,0,0,0,0,0,0,0,0,
21.5153, 18:08:18.058,0,0,0,0,0,0,0,0,0,
21.5521, 18:08:18.096,0,0,0,0,0,0,0,0,0,
21.60873, 18:08:18.153,0,0,0,0,0,0,0,0,0,
21.653, 18:08:18.196,0,0,0,0,0,0,0,0,0,
21.68897, 18:08:18.231,0,0,0,0,0,0,0,0,0,
21.72177, 18:08:18.264,0,0,0,0,0,0,0,0,0,
21.75632, 18:08:18.298,0,0,0,0,0,0,0,0,0,
21.79315, 18:08:18.336,0,0,0,0,0,0,0,0,0,
21.82689, 18:08:18.370,0,0,0,0,0,0,0,0,0,
21.86063, 18:08:18.403,0,0,0,0,0,0,0,0,0,
21.89526, 18:08:18.438,0,0,0,0,0,0,0,0,0,
21.93201, 18:08:18.475,0,0,0,0,0,0,0,0,0,
21.98285, 18:08:18.527,0,0,0,0,0,0,0,0,0,
22.03506, 18:08:18.578,0,0,0,0,0,0,0,0,0,
22.09142, 18:08:18.636,0,0,0,0,0,0,0,0,0,
22.14025, 18:08:18.683,0,0,0,0,0,0,0,0,0,
22.1867, 18:08:18.728,0,0,0,0,0,0,0,0,0,
22.23512, 18:08:18.778,0,0,0,0,0,0,0,0,0,
22.27928, 18:08:18.822,0,0,0,0,0,0,0,0,0,
22.32702, 18:08:18.871,0,0,0,0,0,0,0,0,0,
22.37619, 18:08:18.918,0,0,0,0,0,0,0,0,0,
22.40973, 18:08:18.953,0,0,0,0,0,0,0,0,0,
22.44469, 18:08:18.987,0,0,0,0,0,0,0,0,0,
22.48017, 18:08:19.022,0,0,0,0,0,0,0,0,0,
22.51268, 18:08:19.054,0,0,0,0,0,0,0,0,0,
22.54538, 18:08:19.088,0,0,0,0,0,0,0,0,0,
22.57921, 18:08:19.122,0,0,0,0,0,0,0,0,0,
22.61169, 18:08:19.154,0,0,0,0,0,0,0,0,0,
22.6492, 18:08:19.192,0,0,0,0,0,0,0,0,0,
22.68186, 18:08:19.224,0,0,0,0,0,0,0,0,0,
22.72449, 18:08:19.269,0,0,0,0,0,0,0,0,0,
22.76891, 18:08:19.317,0,0,0,0,0,0,0,0,0,
22.82433, 18:08:19.369,0,0,0,0,0,0,0,0,0,
22.87634, 18:08:19.422,0,0,0,0,0,0,0,0,0,
22.91663, 18:08:19.460,0,0,0,0,0,0,0,0,0,
22.95065, 18:08:19.493,0,0,0,0,0,0,0,0,0,
22.98433, 18:08:19.528,0,0,0,0,0,0,0,0,0,
23.0184, 18:08:19.561,0,0,0,0,0,0,0,0,0,
23.0504, 18:08:19.594,0,0,0,0,0,0,0,0,0,
23.08575, 18:08:19.629,0,0,0,0,0,0,0,0,0,
23.12355, 18:08:19.668,0,0,0,0,0,0,0,0,0,
23.16326, 18:08:19.706,0,0,0,0,0,0,0,0,0,
23.19771, 18:08:19.740,0,0,0,0,0,0,0,0,0,
23.23028, 18:08:19.773,0,0,0,0,0,0,0,0,0,
23.26503, 18:08:19.808,0,0,0,0,0,0,0,0,0,
23.3009, 18:08:19.843,0,0,0,0,0,0,0,0,0,
23.33664, 18:08:19.878,0,0,0,0,0,0,0,0,0,
23.36984, 18:08:19.914,0,0,0,0,0,0,0,0,0,
23.40527, 18:08:19.949,0,0,0,0,0,0,0,0,0,
23.43984, 18:08:19.981,0,0,0,0,0,0,0,0,0,
23.47205, 18:08:20.015,0,0,0,0,0,0,0,0,0,
23.51041, 18:08:20.053,0,0,0,0,0,0,0,0,0,
23.54593, 18:08:20.089,0,0,0,0,0,0,0,0,0,
23.58265, 18:08:20.126,0,0,0,0,0,0,0,0,0,
23.62161, 18:08:20.165,0,0,0,0,0,0,0,0,0,
23.6582, 18:08:20.201,0,0,0,0,0,0,0,0,0,
23.70017, 18:08:20.246,0,0,0,0,0,0,0,0,0,
23.74262, 18:08:20.287,0,0,0,0,0,0,0,0,0,
23.78408, 18:08:20.326,0,0,0,0,0,0,0,0,0,
23.82423, 18:08:20.368,0,0,0,0,0,0,0,0,0,
23.86265, 18:08:20.406,0,0,0,0,0,0,0,0,0,
23.89775, 18:08:20.440,0,0,0,0,0,0,0,0,0,
23.93644, 18:08:20.480,0,0,0,0,0,0,0,0,0,
23.98458, 18:08:20.532,0,0,0,0,0,0,0,0,0,
24.03342, 18:08:20.576,0,0,0,0,0,0,0,0,0,
24.07469, 18:08:20.619,0,0,0,0,0,0,0,0,0,
24.11991, 18:08:20.664,0,0,0,0,0,0,0,0,0,
24.15548, 18:08:20.699,0,0,0,0,0,0,0,0,0,
24.19286, 18:08:20.737,0,0,0,0,0,0,0,0,0,
24.22986, 18:08:20.773,0,0,0,0,0,0,0,0,0,
24.27018, 18:08:20.813,0,0,0,0,0,0,0,0,0,
24.30503, 18:08:20.848,0,0,0,0,0,0,0,0,0,
24.35254, 18:08:20.896,0,0,0,0,0,0,0,0,0,
24.39235, 18:08:20.935,0,0,0,0,0,0,0,0,0,
24.42924, 18:08:20.972,0,0,0,0,0,0,0,0,0,
24.46473, 18:08:21.008,0,0,0,0,0,0,0,0,0,
24.4996, 18:08:21.042,0,0,0,0,0,0,0,0,0,
24.53493, 18:08:21.078,0,0,0,0,0,0,0,0,0,
24.57041, 18:08:21.113,0,0,0,0,0,0,0,0,0,
24.61497, 18:08:21.158,0,0,0,0,0,0,0,0,0,
24.66048, 18:08:21.204,0,0,0,0,0,0,0,0,0,
24.69783, 18:08:21.239,0,0,0,0,0,0,0,0,0,
24.73597, 18:08:21.278,0,0,0,0,0,0,0,0,0,
24.77543, 18:08:21.320,0,0,0,0,0,0,0,0,0,
24.81291, 18:08:21.357,0,0,0,0,0,0,0,0,0,
24.85118, 18:08:21.393,0,0,0,0,0,0,0,0,0,
24.92796, 18:08:21.474,0,0,0,0,0,0,0,0,0,
25.00772, 18:08:21.553,0,0,0,0,0,0,0,0,0,
25.09742, 18:08:21.645,0,0,0,0,0,0,0,0,0,
25.22359, 18:08:21.773,0,0,0,0,0,0,0,0,0,
25.34122, 18:08:21.888,0,0,0,0,0,0,0,0,0,
25.43908, 18:08:21.986,0,0,0,0,0,0,0,0,0,
